File: data/processed/Run1_XRD/10_ReMoB2_49p0GPa_490psi_P1_C4_D1w_077.dat
2.82731  0.626499
2.84629  0.535524
2.86528  0.409733
2.88427  0.192892
2.90325  0.0868292
2.92224  0.396747
2.94122  0.836801
2.96021  1.01149
2.9792  1.11699
2.99818  0.424695
3.01717  0.206744
3.03616  -0.169346
3.05514  0.0519903
3.07413  0.437028
3.09311  0.946076
3.1121  1.50922
3.13109  1.70057
3.15007  0.956839
3.16906  0.967064
3.18805  0.675982
3.20703  1.17464
3.22602  1.5006
3.245  1.56254
3.26399  1.76265
3.28298  2.60513
3.30196  2.73725
3.32095  3.01544
3.33993  2.93266
3.35892  3.35725
3.37791  4.12035
3.39689  5.34442
3.41588  7.99169
3.43487  11.4149
3.45385  15.7874
3.47284  21.0413
3.49182  25.5836
3.51081  28.0668
3.5298  27.1624
3.54878  22.8663
3.56777  17.3855
3.58676  12.1897
3.60574  8.20542
3.62473  5.26754
3.64371  4.24297
3.6627  3.46245
3.68169  3.41356
3.70067  2.74195
3.71966  2.44192
3.73864  1.73145
3.75763  1.82709
3.77662  2.03128
3.7956  2.27567
3.81459  2.2612
3.83358  2.35455
3.85256  2.67906
3.87155  1.98889
3.89053  0.886446
3.90952  0.514623
3.92851  0.584556
3.94749  1.10045
3.96648  1.4557
3.98547  1.61094
4.00445  1.43469
4.02344  1.35595
4.04242  0.658855
4.06141  1.10651
4.0804  0.631464
4.09938  0.933242
4.11837  0.737872
4.13735  0.61847
4.15634  1.22323
4.17533  1.45943
4.19431  1.22971
4.2133  0.534207
4.23229  0.0647178
4.25127  0.0667992
4.27026  0.437814
4.28924  0.361274
4.30823  0.133941
4.32722  0.000916026
4.3462  -0.330892
4.36519  0.290086
4.38418  0.489338
4.40316  0.436126
4.42215  0.244823
4.44113  0.843216
4.46012  1.00694
4.47911  0.658821
4.49809  0.178539
4.51708  -0.0466797
4.53606  0.263537
4.55505  0.368318
4.57404  0.766397
4.59302  0.988941
4.61201  0.920908
4.631  0.577828
4.64998  0.379417
4.66897  0.620268
4.68795  0.792888
4.70694  0.990259
4.72593  0.825981
4.74491  0.529408
4.7639  0.507467
4.78289  0.608114
4.80187  0.706631
4.82086  0.690515
4.83984  0.786726
4.85883  0.79188
4.87782  0.544209
4.8968  0.434162
4.91579  0.899194
4.93478  0.254533
4.95376  0.185624
4.97275  -0.283031
4.99173  0.0434382
5.01072  -0.131876
5.02971  0.176523
5.04869  0.334015
5.06768  0.757386
5.08666  1.13514
5.10565  1.34565
5.12464  1.50502
5.14362  1.20456
5.16261  0.905394
5.1816  0.331215
5.20058  0.747704
5.21957  1.24306
5.23855  0.959962
5.25754  1.15434
5.27653  1.10619
5.29551  1.1021
5.3145  1.06832
5.33349  1.14617
5.35247  1.4201
5.37146  1.48987
5.39044  1.43388
5.40943  0.910927
5.42842  0.916291
5.4474  1.20273
5.46639  1.51461
5.48537  1.19182
5.50436  0.202176
5.52335  -0.0876497
5.54233  0.339089
5.56132  0.872343
5.58031  0.872258
5.59929  0.452113
5.61828  0.531625
5.63726  0.509788
5.65625  0.684447
5.67524  0.392685
5.69422  0.333302
5.71321  0.575881
5.7322  1.10558
5.75118  1.33736
5.77017  1.51964
5.78915  1.16034
5.80814  1.19652
5.82713  0.424802
5.84611  0.239099
5.8651  -0.110149
5.88408  0.381747
5.90307  0.507354
5.92206  0.829791
5.94104  0.829329
5.96003  0.919697
5.97902  0.559069
5.998  0.656323
6.01699  0.49798
6.03597  0.426173
6.05496  0.0980304
6.07395  -0.135056
6.09293  -0.537919
6.11192  -0.267194
6.13091  -0.0791272
6.14989  0.226725
6.16888  0.238804
6.18786  -0.0434725
6.20685  0.144507
6.22584  0.103685
6.24482  0.454051
6.26381  0.561692
6.28279  0.814965
6.30178  0.714282
6.32077  0.373871
6.33975  0.618304
6.35874  0.627372
6.37773  0.992894
6.39671  1.57557
6.4157  2.19592
6.43468  2.25295
6.45367  2.6922
6.47266  3.09691
6.49164  3.5355
6.51063  3.05707
6.52962  2.49314
6.5486  2.56922
6.56759  3.12263
6.58657  3.57089
6.60556  3.57699
6.62455  4.45205
6.64353  5.96369
6.66252  8.0591
6.6815  11.4643
6.70049  15.6826
6.71948  20.1914
6.73846  23.416
6.75745  25.4748
6.77644  26.5962
6.79542  26.7564
6.81441  26.4506
6.83339  26.8641
6.85238  29.0157
6.87137  33.6335
6.89035  40.5014
6.90934  50.3602
6.92833  64.2744
6.94731  82.7171
6.9663  105.44
6.98528  130.224
7.00427  150.398
7.02326  162.21
7.04224  161.969
7.06123  153.444
7.08021  139.013
7.0992  121.303
7.11819  102.537
7.13717  82.7599
7.15616  63.807
7.17515  47.2943
7.19413  33.1828
7.21312  24.1454
7.2321  18.0817
7.25109  13.6433
7.27008  10.2486
7.28906  7.88747
7.30805  6.42387
7.32704  5.66952
7.34602  4.87772
7.36501  4.35833
7.38399  4.03609
7.40298  4.0844
7.42197  3.537
7.44095  3.1062
7.45994  2.40155
7.47892  1.53592
7.49791  1.50911
7.5169  1.43323
7.53588  1.33683
7.55487  1.3434
7.57386  1.33027
7.59284  1.62264
7.61183  1.34692
7.63081  1.04562
7.6498  1.01435
7.66879  1.42055
7.68777  1.6498
7.70676  1.19729
7.72575  0.535596
7.74473  0.312667
7.76372  0.586053
7.7827  0.633977
7.80169  0.73091
7.82068  0.196734
7.83966  -0.24717
7.85865  -0.159655
7.87764  0.121158
7.89662  0.226434
7.91561  0.446677
7.93459  0.620459
7.95358  0.640686
7.97257  0.752449
7.99155  0.68114
8.01054  0.821218
8.02952  0.461162
8.04851  0.147256
8.0675  0.34352
8.08648  -0.0597903
8.10547  -0.401384
8.12446  -0.602672
8.14344  -0.433053
8.16243  -0.00708412
8.18141  0.123098
8.2004  0.327854
8.21939  -0.040792
8.23837  -0.116689
8.25736  0.0325441
8.27635  0.479022
8.29533  0.492611
8.31432  0.715027
8.3333  0.40704
8.35229  0.372311
8.37128  0.030187
8.39026  0.140432
8.40925  0.0794193
8.42823  0.436629
8.44722  0.602272
8.46621  0.757134
8.48519  0.762152
8.50418  0.948215
8.52317  1.09779
8.54215  0.984381
8.56114  0.75301
8.58012  0.709762
8.59911  0.909903
8.6181  0.933944
8.63708  0.757568
8.65607  0.319565
8.67506  0.0340772
8.69404  0.307086
8.71303  0.642859
8.73201  0.862831
8.751  0.686582
8.76999  0.266012
8.78897  -0.144056
8.80796  -0.131359
8.82694  0.11846
8.84593  0.220644
8.86492  0.0746637
8.8839  -0.168915
8.90289  -0.547073
8.92188  -0.603736
8.94086  -0.477544
8.95985  0.110227
8.97883  0.495648
8.99782  0.992271
9.01681  1.64382
9.03579  2.38535
9.05478  3.52632
9.07377  5.29624
9.09275  6.95872
9.11174  9.66998
9.13072  13.7696
9.14971  19.455
9.1687  27.6355
9.18768  40.8653
9.20667  57.6786
9.22565  78.3503
9.24464  96.8631
9.26363  115.018
9.28261  124.457
9.3016  130.517
9.32059  132.746
9.33957  139.714
9.35856  153.311
9.37754  177.149
9.39653  211.96
9.41552  257.915
9.4345  329.693
9.45349  435.641
9.47248  581.013
9.49146  759.997
9.51045  967.288
9.52943  1135.1
9.54842  1252.91
9.56741  1274.92
9.58639  1249.52
9.60538  1145.42
9.62436  1057.04
9.64335  960.973
9.66234  871.395
9.68132  747.839
9.70031  649.815
9.7193  555.531
9.73828  472.477
9.75727  394.7
9.77625  325.26
9.79524  263.231
9.81423  211.652
9.83321  168.642
9.8522  132.764
9.87119  103.248
9.89017  79.559
9.90916  61.92
9.92814  47.7047
9.94713  37.4562
9.96612  29.8399
9.9851  24.2698
10.0041  18.6355
10.0231  13.9412
10.0421  10.4201
10.061  8.45758
10.08  6.57926
10.099  5.67403
10.118  4.76969
10.137  4.14329
10.156  3.72168
10.175  3.3475
10.194  2.98888
10.2129  1.93176
10.2319  0.876087
10.2509  -0.283072
10.2699  -1.15673
10.2889  -1.83736
10.3079  -2.49729
10.3269  -2.94854
10.3458  -2.31883
10.3648  -1.96898
10.3838  -0.906732
10.4028  1.05932
10.4218  3.44143
10.4408  6.44968
10.4598  8.57019
10.4787  10.2037
10.4977  11.8477
10.5167  12.8178
10.5357  12.9072
10.5547  13.9808
10.5737  16.078
10.5927  18.687
10.6116  22.2426
10.6306  25.8207
10.6496  30.2973
10.6686  35.7354
10.6876  41.2815
10.7066  46.5038
10.7256  50.9347
10.7446  54.7275
10.7635  58.5922
10.7825  62.7429
10.8015  67.5949
10.8205  72.0527
10.8395  77.8908
10.8585  82.4706
10.8775  90.3809
10.8964  95.6947
10.9154  103.037
10.9344  108.366
10.9534  111.593
10.9724  115.561
10.9914  115.897
11.0104  119.857
11.0293  120.907
11.0483  122.514
11.0673  125.079
11.0863  123.182
11.1053  125.614
11.1243  122.05
11.1433  118.023
11.1622  109.656
11.1812  105.284
11.2002  97.1018
11.2192  94.6252
11.2382  91.9343
11.2572  90.505
11.2762  89.9967
11.2951  85.8506
11.3141  82.4913
11.3331  76.1668
11.3521  68.7738
11.3711  60.8386
11.3901  49.6599
11.4091  40.5651
11.4281  31.3188
11.447  23.6606
11.466  16.7698
11.485  11.5514
11.504  7.76256
11.523  5.73135
11.542  4.7608
11.561  3.9578
11.5799  3.41741
11.5989  2.65462
11.6179  2.06185
11.6369  1.02236
11.6559  0.119788
11.6749  -1.08544
11.6939  -1.56984
11.7128  -1.41806
11.7318  -1.27614
11.7508  -0.762521
11.7698  -0.12453
11.7888  0.126161
11.8078  1.12392
11.8268  2.08776
11.8457  3.58943
11.8647  4.50976
11.8837  5.66178
11.9027  6.86915
11.9217  7.86467
11.9407  8.60857
11.9597  7.9701
11.9787  9.03595
11.9976  8.57572
12.0166  9.63575
12.0356  10.2704
12.0546  11.6875
12.0736  15.0238
12.0926  18.5008
12.1116  22.8144
12.1305  27.1011
12.1495  30.0138
12.1685  31.3183
12.1875  29.3977
12.2065  27.4068
12.2255  22.6496
12.2445  19.3075
12.2634  15.421
12.2824  13.3456
12.3014  12.8499
12.3204  11.9583
12.3394  13.0508
12.3584  13.7462
12.3774  16.5648
12.3963  18.6004
12.4153  21.06
12.4343  24.6
12.4533  27.8844
12.4723  32.9624
12.4913  38.036
12.5103  45.1247
12.5293  54.0022
12.5482  63.5632
12.5672  79.1746
12.5862  91.8607
12.6052  112.406
12.6242  129.387
12.6432  142.653
12.6622  149.679
12.6811  151.518
12.7001  152.599
12.7191  148.251
12.7381  148.402
12.7571  143.036
12.7761  140.257
12.7951  137.285
12.814  131.379
12.833  131.827
12.852  124.507
12.871  128.187
12.89  125.318
12.909  127.366
12.928  130.567
12.9469  129.546
12.9659  137.598
12.9849  133.193
13.0039  138.865
13.0229  136.229
13.0419  138.691
13.0609  132.658
13.0799  131.666
13.0988  125.537
13.1178  120.13
13.1368  116.384
13.1558  109.15
13.1748  109.084
13.1938  105.809
13.2128  104.022
13.2317  101.152
13.2507  96.8222
13.2697  94.6132
13.2887  88.9187
13.3077  85.1147
13.3267  77.0924
13.3457  71.3895
13.3646  65.4091
13.3836  60.6235
13.4026  56.9672
13.4216  54.0949
13.4406  53.6685
13.4596  52.9025
13.4786  52.297
13.4975  49.3943
13.5165  44.8943
13.5355  39.2559
13.5545  32.7913
13.5735  26.5745
13.5925  20.5429
13.6115  15.5301
13.6305  10.5236
13.6494  6.51575
13.6684  3.26637
13.6874  0.826331
13.7064  -0.975069
13.7254  -2.14073
13.7444  -2.79159
13.7634  -2.70634
13.7823  -2.14131
13.8013  -1.58869
13.8203  -0.751483
13.8393  0.665374
13.8583  2.60135
13.8773  4.48515
13.8963  6.13947
13.9152  7.16309
13.9342  7.93771
13.9532  8.6628
13.9722  10.5071
13.9912  11.5244
14.0102  12.5691
14.0292  13.2871
14.0481  13.8052
14.0671  13.9777
14.0861  13.2868
14.1051  12.8572
14.1241  11.4359
14.1431  10.3841
14.1621  9.18545
14.1811  8.33106
14.2  7.506
14.219  6.42978
14.238  5.29106
14.257  4.19545
14.276  3.34065
14.295  2.67688
14.314  2.46518
14.3329  1.84982
14.3519  1.2707
14.3709  0.840781
14.3899  0.40016
14.4089  0.184623
14.4279  0.0251577
14.4469  0.190771
14.4658  0.0465699
14.4848  -0.307092
14.5038  -0.480842
14.5228  -0.110349
14.5418  -0.229853
14.5608  -0.529892
14.5798  -0.600354
14.5987  -0.704819
14.6177  -0.587933
14.6367  -0.628161
14.6557  -0.22941
14.6747  0.011314
14.6937  -0.130306
14.7127  -0.307318
14.7317  -0.0524585
14.7506  -0.18357
14.7696  -0.607504
14.7886  -0.66591
14.8076  -0.1594
14.8266  0.593229
14.8456  0.572543
14.8646  0.41821
14.8835  0.290575
14.9025  0.331088
14.9215  0.489195
14.9405  0.530331
14.9595  1.0954
14.9785  1.10503
14.9975  1.01218
15.0164  0.987631
15.0354  0.887279
15.0544  0.750123
15.0734  1.05665
15.0924  0.894701
15.1114  0.494622
15.1304  0.101745
15.1493  -0.12268
15.1683  0.324892
15.1873  0.712706
15.2063  0.811505
15.2253  1.05045
15.2443  0.940581
15.2633  0.392953
15.2823  0.0320209
15.3012  0.491667
15.3202  0.571777
15.3392  0.656074
15.3582  0.327476
15.3772  0.22727
15.3962  0.238849
15.4152  -0.373665
15.4341  -0.0328736
15.4531  0.806085
15.4721  1.04932
15.4911  0.743851
15.5101  0.322029
15.5291  0.000382273
15.5481  0.0316337
15.567  0.34138
15.586  0.193803
15.605  0.250185
15.624  0.655755
15.643  0.927547
15.662  0.471277
15.681  0.583747
15.6999  0.944749
15.7189  1.14179
15.7379  1.55612
15.7569  2.00548
15.7759  2.22023
15.7949  2.06632
15.8139  2.54879
15.8329  2.83554
15.8518  3.03722
15.8708  3.44746
15.8898  4.04964
15.9088  4.80409
15.9278  5.67474
15.9468  6.57771
15.9658  7.5694
15.9847  8.05417
16.0037  8.41846
16.0227  9.23548
16.0417  10.2027
16.0607  11.3305
16.0797  12.3831
16.0987  14.3364
16.1176  17.164
16.1366  21.5307
16.1556  27.9586
16.1746  38.7529
16.1936  52.6501
16.2126  69.1061
16.2316  81.0781
16.2505  85.9529
16.2695  80.9829
16.2885  68.9742
16.3075  55.0353
16.3265  43.0454
16.3455  35.0163
16.3645  30.37
16.3834  28.6161
16.4024  28.2374
16.4214  28.9315
16.4404  30.369
16.4594  31.479
16.4784  32.1971
16.4974  32.5572
16.5164  32.5455
16.5353  32.4454
16.5543  31.4545
16.5733  30.2079
16.5923  27.4523
16.6113  25.0239
16.6303  21.5736
16.6493  19.1342
16.6682  17.0998
16.6872  16.5252
16.7062  15.9953
16.7252  16.3658
16.7442  17.0641
16.7632  17.2344
16.7822  16.4563
16.8011  15.0369
16.8201  13.3649
16.8391  11.4905
16.8581  10.2569
16.8771  9.5597
16.8961  8.91654
16.9151  8.82547
16.934  9.27029
16.953  9.71322
16.972  9.89105
16.991  8.98036
17.01  7.40951
17.029  5.01515
17.048  2.89479
17.067  1.77746
17.0859  1.7131
17.1049  1.38639
17.1239  0.661886
17.1429  0.140706
17.1619  0.0649573
17.1809  -0.36715
17.1999  -0.399095
17.2188  -0.660766
17.2378  -0.623761
17.2568  -0.936245
17.2758  -0.978506
17.2948  -0.666236
17.3138  -0.449665
17.3328  -0.512288
17.3517  -0.933698
17.3707  -1.06382
17.3897  -0.922132
17.4087  -0.353643
17.4277  0.130181
17.4467  0.452045
17.4657  1.20532
17.4846  2.1682
17.5036  3.34277
17.5226  4.56211
17.5416  5.93928
17.5606  6.50634
17.5796  6.874
17.5986  7.51652
17.6176  8.34171
17.6365  9.04844
17.6555  9.72535
17.6745  10.8675
17.6935  12.144
17.7125  12.8536
17.7315  13.7445
17.7505  15.1531
17.7694  17.115
17.7884  19.8679
17.8074  23.8268
17.8264  29.2355
17.8454  36.3487
17.8644  46.3424
17.8834  61.2992
17.9023  83.622
17.9213  116.474
17.9403  162.452
17.9593  218.404
17.9783  270.638
17.9973  300.886
18.0163  299.615
18.0352  272.941
18.0542  239.267
18.0732  207.784
18.0922  182.65
18.1112  162.773
18.1302  145.782
18.1492  130.702
18.1682  116.817
18.1871  104.881
18.2061  95.1058
18.2251  86.147
18.2441  77.971
18.2631  69.4956
18.2821  61.895
18.3011  54.0808
18.32  46.351
18.339  38.5807
18.358  31.5906
18.377  26.1748
18.396  22.0102
18.415  18.8022
18.434  16.338
18.4529  13.9864
18.4719  12.17
18.4909  10.3744
18.5099  9.35152
18.5289  8.69126
18.5479  8.56223
18.5669  8.65722
18.5858  8.40299
18.6048  8.54943
18.6238  8.74186
18.6428  8.80702
18.6618  8.60723
18.6808  8.79221
18.6998  9.58192
18.7188  10.7005
18.7377  11.854
18.7567  12.9867
18.7757  14.1503
18.7947  16.0165
18.8137  18.421
18.8327  21.3316
18.8517  24.8253
18.8706  28.0338
18.8896  30.4253
18.9086  31.7379
18.9276  32.9408
18.9466  34.0833
18.9656  35.7979
18.9846  38.0236
19.0035  39.7662
19.0225  40.9959
19.0415  41.3665
19.0605  41.1866
19.0795  40.5371
19.0985  39.5433
19.1175  38.4294
19.1364  36.898
19.1554  35.1855
19.1744  33.3193
19.1934  31.288
19.2124  28.563
19.2314  25.5679
19.2504  22.39
19.2694  19.2291
19.2883  15.6853
19.3073  12.3654
19.3263  9.26992
19.3453  6.84027
19.3643  4.71996
19.3833  3.24094
19.4023  1.92603
19.4212  1.34132
19.4402  1.209
19.4592  1.32745
19.4782  1.72204
19.4972  2.78925
19.5162  4.61851
19.5352  6.57373
19.5541  9.01435
19.5731  11.7926
19.5921  15.3094
19.6111  19.5949
19.6301  24.709
19.6491  30.3897
19.6681  37.1103
19.687  43.8063
19.706  49.8457
19.725  55.2195
19.744  59.8166
19.763  63.4224
19.782  66.7606
19.801  68.2157
19.82  68.2329
19.8389  64.1096
19.8579  58.9096
19.8769  53.1182
19.8959  48.1714
19.9149  43.9765
19.9339  39.7818
19.9529  35.6522
19.9718  32.4238
19.9908  30.3067
20.0098  27.4161
20.0288  25.7961
20.0478  23.3479
20.0668  23.2255
20.0858  20.9958
20.1047  20.6593
20.1237  19.5715
20.1427  18.6041
20.1617  17.1195
20.1807  16.516
20.1997  15.1466
20.2187  14.9339
20.2376  13.7208
20.2566  13.3119
20.2756  12.3404
20.2946  12.2857
20.3136  12.5523
20.3326  12.4246
20.3516  12.227
20.3706  11.7766
20.3895  12.0054
20.4085  12.0725
20.4275  11.8194
20.4465  11.2641
20.4655  11.2508
20.4845  11.3242
20.5035  11.4354
20.5224  11.2529
20.5414  11.0721
20.5604  11.4715
20.5794  12.1169
20.5984  12.487
20.6174  12.5764
20.6364  12.7801
20.6553  13.0327
20.6743  13.4318
20.6933  13.7996
20.7123  14.1565
20.7313  14.4236
20.7503  14.758
20.7693  14.9417
20.7882  15.282
20.8072  15.5949
20.8262  16.4206
20.8452  17.2297
20.8642  17.2125
20.8832  17.314
20.9022  17.6706
20.9212  18.5606
20.9401  19.1773
20.9591  20.1044
20.9781  20.802
20.9971  21.321
21.0161  21.9428
21.0351  22.7961
21.0541  24.1518
21.073  25.3662
21.092  26.9341
21.111  28.1918
21.13  29.51
21.149  30.5708
21.168  31.8054
21.187  32.9361
21.2059  33.3038
21.2249  33.7342
21.2439  34.2028
21.2629  33.377
21.2819  33.3748
21.3009  31.9451
21.3199  30.6905
21.3388  28.0337
21.3578  24.7195
21.3768  20.7746
21.3958  17.1199
21.4148  13.6047
21.4338  10.6115
21.4528  8.05707
21.4717  6.16842
21.4907  4.13381
21.5097  2.62891
21.5287  1.32297
21.5477  0.495665
21.5667  -0.166302
21.5857  -0.578467
21.6047  -0.788583
21.6236  -0.797334
21.6426  -0.177624
21.6616  0.718248
21.6806  1.96983
21.6996  3.67468
21.7186  6.18309
21.7376  9.03865
21.7565  11.6535
21.7755  13.59
21.7945  14.3448
21.8135  13.8611
21.8325  13.0851
21.8515  12.735
21.8705  13.1238
21.8894  13.594
21.9084  14.3171
21.9274  14.5445
21.9464  14.3961
21.9654  14.0239
21.9844  13.2385
22.0034  12.2961
22.0223  11.1098
22.0413  10.0069
22.0603  8.73531
22.0793  7.69927
22.0983  6.48764
22.1173  5.59098
22.1363  4.82092
22.1553  4.21817
22.1742  3.65655
22.1932  3.19866
22.2122  2.64583
22.2312  1.89065
22.2502  1.39875
22.2692  0.737934
22.2882  0.0883249
22.3071  -0.621489
22.3261  -0.610349
22.3451  -0.436488
22.3641  -0.447151
22.3831  -0.373084
22.4021  -0.24355
22.4211  -0.0160967
22.44  -0.0691836
22.459  -0.117062
22.478  -0.0717273
22.497  0.180846
22.516  0.35242
22.535  0.547783
22.554  0.729778
22.5729  0.856021
22.5919  0.689636
22.6109  0.522861
22.6299  0.336802
22.6489  0.104979
22.6679  0.106709
22.6869  0.147833
22.7059  0.247569
22.7248  0.0299278
22.7438  -0.104468
22.7628  0.125158
22.7818  0.259096
22.8008  0.173266
22.8198  -0.115736
22.8388  -0.14854
22.8577  -0.136161
22.8767  0.000312109
22.8957  0.228145
22.9147  0.39168
22.9337  0.445557
22.9527  0.211813
22.9717  0.215011
22.9906  0.0493208
23.0096  0.0365896
23.0286  -0.110535
23.0476  0.191304
23.0666  1.81097
23.0856  2.05357
23.1046  1.97641
23.1235  0.961965
23.1425  0.873111
23.1615  0.815806
23.1805  0.393099
23.1995  0.283887
23.2185  0.222552
23.2375  0.0183558
23.2565  -0.0223803
23.2754  0.16237
23.2944  0.392553
23.3134  0.394582
23.3324  0.272458
23.3514  0.126771
23.3704  0.337492
23.3894  0.345849
23.4083  0.13762
23.4273  -0.0478674
23.4463  -0.111172
23.4653  0.189696
23.4843  0.185878
23.5033  0.291508
23.5223  0.10189
23.5412  0.0749028
23.5602  0.0241403
23.5792  0.239851
23.5982  0.40708
23.6172  0.451552
23.6362  0.56059
23.6552  0.322505
23.6741  0.17985
23.6931  -0.17633
23.7121  0.113256
23.7311  0.120339
23.7501  0.382053
23.7691  0.104115
23.7881  0.106688
23.8071  0.134334
23.826  0.194467
23.845  0.258595
23.864  0.281735
23.883  0.133758
23.902  0.125391
23.921  0.0875717
23.94  0.0220134
23.9589  -0.25357
23.9779  -0.248262
23.9969  0.119804
24.0159  0.308482
24.0349  0.339234
24.0539  0.285434
24.0729  0.253091
24.0918  0.145375
24.1108  -0.0314508
24.1298  -0.234124
24.1488  -0.278807
24.1678  -0.288778
24.1868  0.0629024
24.2058  0.171517
24.2247  0.343839
24.2437  -0.23208