File: data/processed/Run1_XRD/11_ReMoB2_52p0GPa_520psi_P1_C4_D1w_083.dat
2.82731  0.410008
2.84629  0.330507
2.86528  0.7031
2.88427  1.03358
2.90325  1.14771
2.92224  1.2625
2.94122  0.910184
2.96021  0.622728
2.9792  1.11339
2.99818  1.38297
3.01717  2.06692
3.03616  1.70434
3.05514  1.15953
3.07413  0.749963
3.09311  1.0306
3.1121  1.52107
3.13109  1.94455
3.15007  1.75839
3.16906  1.32698
3.18805  1.29141
3.20703  1.59342
3.22602  1.63002
3.245  2.08049
3.26399  2.32003
3.28298  2.92973
3.30196  2.88446
3.32095  3.18106
3.33993  3.41721
3.35892  3.92528
3.37791  4.39808
3.39689  6.15194
3.41588  8.21694
3.43487  11.645
3.45385  16.5243
3.47284  24.3963
3.49182  32.1537
3.51081  37.7305
3.5298  37.6325
3.54878  31.1696
3.56777  22.2711
3.58676  14.7026
3.60574  9.53988
3.62473  6.31758
3.64371  4.2633
3.6627  3.37633
3.68169  3.27442
3.70067  2.73423
3.71966  2.21731
3.73864  1.49318
3.75763  1.09683
3.77662  1.38555
3.7956  1.74627
3.81459  1.87567
3.83358  1.14432
3.85256  0.419408
3.87155  0.413451
3.89053  0.156667
3.90952  -0.061994
3.92851  0.0591407
3.94749  0.847634
3.96648  1.53964
3.98547  1.47105
4.00445  1.27683
4.02344  0.468787
4.04242  0.0695828
4.06141  0.0624669
4.0804  0.817411
4.09938  1.24196
4.11837  1.08561
4.13735  0.710859
4.15634  0.971455
4.17533  1.16651
4.19431  0.911415
4.2133  0.620106
4.23229  -0.151494
4.25127  0.0916236
4.27026  0.269677
4.28924  0.981412
4.30823  1.16171
4.32722  1.36255
4.3462  0.82147
4.36519  0.859583
4.38418  0.727991
4.40316  0.758124
4.42215  0.884941
4.44113  0.995149
4.46012  1.18791
4.47911  0.82901
4.49809  0.739905
4.51708  0.305495
4.53606  0.0551542
4.55505  -0.130566
4.57404  0.0964966
4.59302  0.34851
4.61201  0.879632
4.631  0.864953
4.64998  0.876042
4.66897  0.292075
4.68795  0.500984
4.70694  0.477836
4.72593  0.74806
4.74491  0.723624
4.7639  0.45749
4.78289  0.438359
4.80187  0.526657
4.82086  0.303385
4.83984  0.286732
4.85883  0.215681
4.87782  0.113565
4.8968  0.592702
4.91579  1.04032
4.93478  1.12338
4.95376  0.954236
4.97275  0.400606
4.99173  0.721867
5.01072  0.64656
5.02971  0.451762
5.04869  0.271093
5.06768  0.127518
5.08666  0.138744
5.10565  0.500412
5.12464  0.174253
5.14362  0.291925
5.16261  0.252669
5.1816  0.20251
5.20058  0.135182
5.21957  0.508794
5.23855  0.762275
5.25754  1.30438
5.27653  1.79826
5.29551  1.79125
5.3145  1.96011
5.33349  1.64026
5.35247  1.46564
5.37146  1.29001
5.39044  0.256317
5.40943  -0.275447
5.42842  -0.423431
5.4474  0.397806
5.46639  0.804731
5.48537  0.890418
5.50436  0.443326
5.52335  0.279605
5.54233  0.768807
5.56132  1.36142
5.58031  1.16002
5.59929  1.23297
5.61828  1.62852
5.63726  1.98165
5.65625  2.30589
5.67524  1.89584
5.69422  1.28967
5.71321  1.76551
5.7322  1.70672
5.75118  1.43824
5.77017  1.22806
5.78915  0.867285
5.80814  0.929195
5.82713  1.32354
5.84611  1.06519
5.8651  0.772946
5.88408  0.250184
5.90307  -0.0892729
5.92206  -0.081629
5.94104  -0.0385051
5.96003  0.560187
5.97902  0.632495
5.998  0.936379
6.01699  0.318768
6.03597  0.555839
6.05496  0.293207
6.07395  0.522716
6.09293  0.438761
6.11192  0.0739615
6.13091  -0.0831065
6.14989  0.0432167
6.16888  0.0821066
6.18786  0.0632592
6.20685  -0.01882
6.22584  -0.37165
6.24482  -0.2072
6.26381  -0.193558
6.28279  -0.108154
6.30178  0.626887
6.32077  1.08578
6.33975  1.69856
6.35874  1.63554
6.37773  1.91161
6.39671  2.75039
6.4157  3.2143
6.43468  3.66429
6.45367  3.86306
6.47266  3.7403
6.49164  3.77574
6.51063  3.75632
6.52962  3.89164
6.5486  3.99372
6.56759  3.86307
6.58657  4.18688
6.60556  4.86163
6.62455  5.67327
6.64353  7.10478
6.66252  8.94634
6.6815  12.7977
6.70049  17.2757
6.71948  22.7035
6.73846  26.934
6.75745  30.9051
6.77644  33.2714
6.79542  34.834
6.81441  34.6525
6.83339  34.2446
6.85238  34.417
6.87137  36.1989
6.89035  41.1209
6.90934  49.0814
6.92833  62.5928
6.94731  82.6814
6.9663  110.001
6.98528  144.047
7.00427  182.718
7.02326  216.379
7.04224  233.895
7.06123  230.713
7.08021  208.061
7.0992  173.665
7.11819  137.155
7.13717  102.337
7.15616  75.9478
7.17515  55.7789
7.19413  40.4244
7.21312  30.4429
7.2321  22.9047
7.25109  17.6249
7.27008  14.0793
7.28906  11.5764
7.30805  9.14592
7.32704  7.64036
7.34602  6.91546
7.36501  5.81535
7.38399  4.87798
7.40298  3.75479
7.42197  3.75157
7.44095  3.34952
7.45994  3.27742
7.47892  2.75308
7.49791  2.82747
7.5169  2.39134
7.53588  1.85568
7.55487  1.4383
7.57386  1.25907
7.59284  0.89556
7.61183  0.307644
7.63081  0.0239451
7.6498  -0.0569869
7.66879  0.248764
7.68777  0.59886
7.70676  0.91821
7.72575  0.861294
7.74473  0.679302
7.76372  0.88483
7.7827  0.884202
7.80169  0.887623
7.82068  0.946203
7.83966  0.872623
7.85865  0.853221
7.87764  0.660446
7.89662  0.415155
7.91561  0.372811
7.93459  -0.072492
7.95358  -0.212531
7.97257  -0.085781
7.99155  0.322813
8.01054  0.385719
8.02952  0.143
8.04851  -0.17034
8.0675  0.231389
8.08648  0.42076
8.10547  0.206799
8.12446  0.066634
8.14344  -0.0272363
8.16243  -0.248484
8.18141  -0.102562
8.2004  -0.156457
8.21939  0.0407782
8.23837  0.0809057
8.25736  -0.0824287
8.27635  -0.121653
8.29533  0.0207961
8.31432  0.581942
8.3333  0.518322
8.35229  0.493471
8.37128  0.00368305
8.39026  0.0203399
8.40925  -0.142469
8.42823  0.42862
8.44722  0.831476
8.46621  1.21364
8.48519  1.24326
8.50418  1.22713
8.52317  1.42942
8.54215  1.31393
8.56114  1.18687
8.58012  0.942521
8.59911  1.09565
8.6181  1.00814
8.63708  0.794286
8.65607  0.369528
8.67506  0.124559
8.69404  0.00835397
8.71303  0.0281824
8.73201  0.133637
8.751  0.30932
8.76999  0.0720364
8.78897  -0.0456629
8.80796  -0.452465
8.82694  -0.377827
8.84593  -0.217306
8.86492  -0.0967121
8.8839  -0.408423
8.90289  -0.751308
8.92188  -0.567484
8.94086  -0.133756
8.95985  0.290007
8.97883  0.728941
8.99782  1.4306
9.01681  2.59431
9.03579  3.9548
9.05478  4.79425
9.07377  5.89573
9.09275  8.23371
9.11174  12.3891
9.13072  18.1145
9.14971  25.1811
9.1687  34.6087
9.18768  46.894
9.20667  61.5494
9.22565  77.4681
9.24464  96.2198
9.26363  120.489
9.28261  148.288
9.3016  181.095
9.32059  215.324
9.33957  249.289
9.35856  276.84
9.37754  306.163
9.39653  330.513
9.41552  352.483
9.4345  379.013
9.45349  420.156
9.47248  497.411
9.49146  591.553
9.51045  712.613
9.52943  829.897
9.54842  933.934
9.56741  1015.72
9.58639  1062.57
9.60538  1073.25
9.62436  1070.18
9.64335  1049.66
9.66234  1023.31
9.68132  947.842
9.70031  858.919
9.7193  747.028
9.73828  640.187
9.75727  539.49
9.77625  446.01
9.79524  364.711
9.81423  295.375
9.83321  239.392
9.8522  192.888
9.87119  153.772
9.89017  121.474
9.90916  96.5271
9.92814  77.0586
9.94713  61.6722
9.96612  48.9161
9.9851  38.3211
10.0041  30.4691
10.0231  23.2939
10.0421  17.0459
10.061  12.3623
10.08  8.93674
10.099  7.41988
10.118  5.58179
10.137  4.15606
10.156  2.84732
10.175  1.77981
10.194  1.43962
10.2129  1.1903
10.2319  0.800562
10.2509  -0.0772104
10.2699  -1.2931
10.2889  -1.70675
10.3079  -1.60376
10.3269  -1.37955
10.3458  -1.19135
10.3648  -1.52933
10.3838  -2.02669
10.4028  -2.27909
10.4218  -2.14443
10.4408  -0.924208
10.4598  0.426727
10.4787  1.12169
10.4977  2.61332
10.5167  4.96493
10.5357  7.67696
10.5547  10.0609
10.5737  11.8666
10.5927  13.5412
10.6116  14.7361
10.6306  16.3869
10.6496  17.9827
10.6686  20.6924
10.6876  23.4485
10.7066  26.7788
10.7256  30.4523
10.7446  34.7648
10.7635  39.0315
10.7825  43.7158
10.8015  47.8965
10.8205  52.3167
10.8395  57.4844
10.8585  62.0156
10.8775  66.4121
10.8964  69.9577
10.9154  74.3865
10.9344  77.9127
10.9534  82.1946
10.9724  87.2151
10.9914  90.7373
11.0104  96.4411
11.0293  100.366
11.0483  104.68
11.0673  108.505
11.0863  108.837
11.1053  110.152
11.1243  108.508
11.1433  105.469
11.1622  100.412
11.1812  94.843
11.2002  88.4101
11.2192  84.37
11.2382  82.1322
11.2572  82.1985
11.2762  85.3722
11.2951  88.304
11.3141  92.5473
11.3331  93.9675
11.3521  94.2519
11.3711  92.2101
11.3901  86.489
11.4091  79.47
11.4281  69.471
11.447  58.843
11.466  46.7817
11.485  36.6667
11.504  27.8103
11.523  22.4558
11.542  18.2977
11.561  14.8391
11.5799  11.8077
11.5989  9.41083
11.6179  7.50395
11.6369  5.35218
11.6559  3.72005
11.6749  2.16814
11.6939  1.05848
11.7128  0.226367
11.7318  -1.04969
11.7508  -1.30072
11.7698  -1.24761
11.7888  -0.563196
11.8078  -0.196342
11.8268  0.0641992
11.8457  1.04076
11.8647  1.76895
11.8837  3.227
11.9027  3.75611
11.9217  4.99536
11.9407  5.87623
11.9597  6.88196
11.9787  8.61739
11.9976  9.80457
12.0166  11.9788
12.0356  14.1459
12.0546  18.2164
12.0736  24.3289
12.0926  29.9187
12.1116  40.7293
12.1305  48.9643
12.1495  61.8193
12.1685  70.5953
12.1875  77.7658
12.2065  75.982
12.2255  71.9166
12.2445  61.8138
12.2634  50.4768
12.2824  39.567
12.3014  29.9467
12.3204  24.1922
12.3394  20.2715
12.3584  18.0382
12.3774  17.9153
12.3963  17.2113
12.4153  17.7831
12.4343  18.5993
12.4533  20.5736
12.4723  22.4126
12.4913  24.795
12.5103  28.2976
12.5293  33.0982
12.5482  39.2786
12.5672  46.554
12.5862  55.0796
12.6052  65.5736
12.6242  78.1675
12.6432  91.4683
12.6622  102.404
12.6811  112.002
12.7001  117.623
12.7191  121.244
12.7381  121.917
12.7571  120.705
12.7761  118.751
12.7951  115.599
12.814  112.386
12.833  109.471
12.852  104.989
12.871  103.906
12.89  101.423
12.909  100.789
12.928  100.636
12.9469  99.579
12.9659  102.927
12.9849  101.942
13.0039  106.017
13.0229  107.54
13.0419  109.455
13.0609  112.036
13.0799  112.623
13.0988  114.878
13.1178  114.425
13.1368  114.664
13.1558  111.247
13.1748  109.15
13.1938  105.822
13.2128  102.261
13.2317  99.652
13.2507  93.4704
13.2697  90.6347
13.2887  85.1583
13.3077  80.9116
13.3267  74.9313
13.3457  69.6653
13.3646  64.606
13.3836  59.947
13.4026  56.3813
13.4216  53.0965
13.4406  51.3364
13.4596  50.2597
13.4786  50.4821
13.4975  50.285
13.5165  50.2946
13.5355  49.6054
13.5545  47.3468
13.5735  44.0235
13.5925  39.892
13.6115  34.8529
13.6305  28.2794
13.6494  22.0854
13.6684  16.6135
13.6874  11.5168
13.7064  6.87639
13.7254  2.68298
13.7444  0.218158
13.7634  -1.26649
13.7823  -1.98147
13.8013  -2.37093
13.8203  -2.18074
13.8393  -1.56622
13.8583  -0.889806
13.8773  -0.7745
13.8963  -0.0985942
13.9152  0.970661
13.9342  2.38332
13.9532  3.70405
13.9722  5.15473
13.9912  6.81398
14.0102  8.50219
14.0292  10.5951
14.0481  12.6559
14.0671  15.3234
14.0861  16.9721
14.1051  18.3717
14.1241  17.6404
14.1431  16.8588
14.1621  14.9574
14.1811  12.5454
14.2  10.1189
14.219  7.87266
14.238  6.24123
14.257  4.80094
14.276  3.5606
14.295  2.9905
14.314  2.77838
14.3329  2.37533
14.3519  1.88305
14.3709  1.26131
14.3899  0.517862
14.4089  0.341622
14.4279  0.300011
14.4469  0.116181
14.4658  -0.283266
14.4848  -0.293807
14.5038  -0.327319
14.5228  -0.578436
14.5418  -0.502256
14.5608  -0.617274
14.5798  -0.389538
14.5987  -0.423767
14.6177  -0.175278
14.6367  -0.327902
14.6557  -0.425534
14.6747  -0.0348169
14.6937  -0.181977
14.7127  0.150107
14.7317  0.192194
14.7506  0.270128
14.7696  -0.121582
14.7886  -0.104215
14.8076  0.186917
14.8266  0.312291
14.8456  0.0909374
14.8646  0.281522
14.8835  0.171249
14.9025  -0.289304
14.9215  -0.0723353
14.9405  0.328227
14.9595  0.438973
14.9785  0.395665
14.9975  0.663373
15.0164  1.15276
15.0354  1.27047
15.0544  1.06609
15.0734  0.844298
15.0924  1.32955
15.1114  1.54804
15.1304  1.15986
15.1493  0.187797
15.1683  -0.168971
15.1873  0.0630658
15.2063  0.368753
15.2253  0.424195
15.2443  -0.0575936
15.2633  -0.328056
15.2823  -0.451742
15.3012  -0.148884
15.3202  0.16365
15.3392  0.183181
15.3582  -0.0979087
15.3772  -0.125137
15.3962  -0.217551
15.4152  0.0809739
15.4341  0.178127
15.4531  0.322246
15.4721  0.201976
15.4911  0.0540261
15.5101  -0.262778
15.5291  0.057399
15.5481  0.116539
15.567  0.197491
15.586  0.367308
15.605  0.82499
15.624  0.941594
15.643  0.91402
15.662  0.688678
15.681  0.715043
15.6999  0.932702
15.7189  1.10399
15.7379  1.35151
15.7569  1.8317
15.7759  2.20013
15.7949  2.33146
15.8139  2.38961
15.8329  2.73158
15.8518  3.09502
15.8708  3.39114
15.8898  3.99
15.9088  4.54862
15.9278  5.29962
15.9468  5.91366
15.9658  6.25166
15.9847  7.04688
16.0037  7.39222
16.0227  8.17685
16.0417  9.46395
16.0607  10.7428
16.0797  11.4507
16.0987  12.0521
16.1176  12.9067
16.1366  14.0873
16.1556  15.9076
16.1746  18.0265
16.1936  20.8534
16.2126  24.42
16.2316  29.1241
16.2505  35.0056
16.2695  41.4145
16.2885  46.0294
16.3075  47.231
16.3265  45.3626
16.3455  40.6058
16.3645  35.5944
16.3834  31.0851
16.4024  28.3557
16.4214  26.7031
16.4404  26.4034
16.4594  26.7731
16.4784  27.8643
16.4974  28.9827
16.5164  30.5906
16.5353  33.509
16.5543  36.633
16.5733  38.9832
16.5923  40.0203
16.6113  39.7664
16.6303  38.6867
16.6493  36.3843
16.6682  32.9673
16.6872  28.344
16.7062  23.8891
16.7252  20.7186
16.7442  18.838
16.7632  17.4138
16.7822  15.3998
16.8011  13.819
16.8201  12.3727
16.8391  11.4505
16.8581  10.0673
16.8771  9.1324
16.8961  8.24782
16.9151  8.1188
16.934  7.73113
16.953  7.60228
16.972  6.98063
16.991  6.55903
17.01  6.11881
17.029  5.99508
17.048  5.31082
17.067  4.60858
17.0859  3.80262
17.1049  2.92085
17.1239  1.93371
17.1429  1.23726
17.1619  0.660563
17.1809  0.685898
17.1999  0.647406
17.2188  0.447276
17.2378  0.11412
17.2568  -0.408483
17.2758  -0.83689
17.2948  -1.02928
17.3138  -1.10464
17.3328  -0.880654
17.3517  -0.564434
17.3707  -0.131174
17.3897  -0.34656
17.4087  -0.664993
17.4277  -0.861827
17.4467  -0.5892
17.4657  -0.0129711
17.4846  0.59002
17.5036  1.09195
17.5226  1.87763
17.5416  2.5911
17.5606  3.35043
17.5796  3.87029
17.5986  5.08437
17.6176  6.20611
17.6365  7.18807
17.6555  7.90177
17.6745  8.73393
17.6935  9.39161
17.7125  10.1431
17.7315  10.5832
17.7505  11.2976
17.7694  12.2831
17.7884  14.0036
17.8074  16.105
17.8264  17.6433
17.8454  19.7845
17.8644  22.4811
17.8834  26.4479
17.9023  31.8389
17.9213  37.5941
17.9403  44.6826
17.9593  53.3522
17.9783  64.4475
17.9973  77.8329
18.0163  92.7443
18.0352  108.675
18.0542  121.574
18.0732  131.051
18.0922  135.297
18.1112  136.534
18.1302  135.35
18.1492  132.364
18.1682  127.467
18.1871  118.846
18.2061  108.381
18.2251  95.927
18.2441  83.9265
18.2631  72.7119
18.2821  63.3063
18.3011  55.6849
18.32  49.8725
18.339  45.1297
18.358  41.1755
18.377  37.3663
18.396  33.4313
18.415  29.5019
18.434  25.5743
18.4529  21.9666
18.4719  19.0309
18.4909  16.0777
18.5099  13.7985
18.5289  11.8337
18.5479  10.682
18.5669  8.99942
18.5858  7.97562
18.6048  7.38886
18.6238  7.08566
18.6428  6.90023
18.6618  6.63232
18.6808  6.79002
18.6998  6.51486
18.7188  6.72745
18.7377  7.46468
18.7567  8.33193
18.7757  8.55639
18.7947  9.14176
18.8137  10.5216
18.8327  11.7483
18.8517  13.0279
18.8706  14.5548
18.8896  16.0927
18.9086  17.4193
18.9276  19.099
18.9466  21.1822
18.9656  23.6217
18.9846  26.0551
19.0035  28.7311
19.0225  31.6603
19.0415  34.3662
19.0605  37.5199
19.0795  40.5534
19.0985  42.7326
19.1175  43.9704
19.1364  44.079
19.1554  43.2009
19.1744  41.3859
19.1934  39.0224
19.2124  36.3909
19.2314  33.4873
19.2504  29.9028
19.2694  26.4802
19.2883  22.8084
19.3073  19.6478
19.3263  16.3328
19.3453  13.3196
19.3643  10.586
19.3833  8.42511
19.4023  6.14052
19.4212  4.10388
19.4402  2.62367
19.4592  2.03702
19.4782  1.59829
19.4972  1.2703
19.5162  1.2021
19.5352  1.54633
19.5541  2.28431
19.5731  3.71852
19.5921  5.53808
19.6111  8.13148
19.6301  11.065
19.6491  14.8845
19.6681  19.3705
19.687  23.9837
19.706  29.4083
19.725  35.1225
19.744  41.663
19.763  47.062
19.782  52.7882
19.801  57.2352
19.82  62.1753
19.8389  65.1602
19.8579  67.7305
19.8769  68.9616
19.8959  68.7208
19.9149  67.3916
19.9339  64.4184
19.9529  62.7531
19.9718  59.6676
19.9908  57.9247
20.0098  54.1981
20.0288  51.7973
20.0478  48.1143
20.0668  45.0267
20.0858  40.4339
20.1047  37.4302
20.1237  33.7899
20.1427  31.3489
20.1617  28.1092
20.1807  26.6421
20.1997  24.8537
20.2187  24.1331
20.2376  22.8394
20.2566  21.7768
20.2756  20.6997
20.2946  19.8106
20.3136  19.2938
20.3326  18.5869
20.3516  18.2271
20.3706  17.2095
20.3895  16.6788
20.4085  15.9477
20.4275  15.0356
20.4465  14.2327
20.4655  13.6112
20.4845  12.9835
20.5035  12.6229
20.5224  12.506
20.5414  12.502
20.5604  12.6172
20.5794  12.209
20.5984  12.3078
20.6174  11.9751
20.6364  12.1457
20.6553  11.995
20.6743  12.0078
20.6933  12.2099
20.7123  12.6902
20.7313  12.7796
20.7503  13.0541
20.7693  13.2054
20.7882  13.3985
20.8072  13.4595
20.8262  13.6669
20.8452  13.8789
20.8642  14.1465
20.8832  14.0634
20.9022  13.8107
20.9212  14.1336
20.9401  14.6323
20.9591  15.3462
20.9781  15.7377
20.9971  15.7337
21.0161  15.7102
21.0351  16.1861
21.0541  16.8309
21.073  17.3181
21.092  17.4405
21.111  17.6459
21.13  17.4533
21.149  17.5208
21.168  17.226
21.187  16.7982
21.2059  15.9107
21.2249  15.2363
21.2439  14.3556
21.2629  13.3871
21.2819  12.7294
21.3009  11.4127
21.3199  10.9507
21.3388  10.2963
21.3578  9.48371
21.3768  8.61791
21.3958  7.85947
21.4148  7.20851
21.4338  6.45652
21.4528  5.31345
21.4717  4.54117
21.4907  3.51712
21.5097  2.67719
21.5287  2.0974
21.5477  1.39209
21.5667  0.667413
21.5857  0.141677
21.6047  -0.196045
21.6236  -0.567457
21.6426  -0.719228
21.6616  -0.723857
21.6806  -0.545755
21.6996  -0.298403
21.7186  0.245786
21.7376  1.0261
21.7565  1.75211
21.7755  2.86868
21.7945  4.29606
21.8135  6.06745
21.8325  8.00768
21.8515  10.2159
21.8705  12.2946
21.8894  14.7201
21.9084  17.5119
21.9274  20.6498
21.9464  23.849
21.9654  26.7098
21.9844  28.5025
22.0034  28.9698
22.0223  27.6287
22.0413  24.9831
22.0603  21.5913
22.0793  18.0993
22.0983  14.5717
22.1173  11.3869
22.1363  9.04344
22.1553  7.041
22.1742  5.32313
22.1932  4.18265
22.2122  3.45781
22.2312  2.85734
22.2502  2.3402
22.2692  1.82164
22.2882  1.35963
22.3071  0.719999
22.3261  0.027548
22.3451  -0.194468
22.3641  -0.208904
22.3831  -0.301371
22.4021  -0.633492
22.4211  -0.796531
22.44  -0.813777
22.459  -0.542834
22.478  -0.189433
22.497  0.0812198
22.516  0.257696
22.535  0.555262
22.554  1.10087
22.5729  1.66575
22.5919  2.0095
22.6109  2.15179
22.6299  2.03371
22.6489  1.73157
22.6679  2.03531
22.6869  2.41397
22.7059  4.34022
22.7248  3.59778
22.7438  5.4867
22.7628  5.7944
22.7818  4.90344
22.8008  1.41374
22.8198  -0.183307
22.8388  -0.238895
22.8577  -0.11528
22.8767  -0.265186
22.8957  -0.0817173
22.9147  0.0226459
22.9337  0.170785
22.9527  -0.00421618
22.9717  -0.195031
22.9906  -0.356928
23.0096  -0.153014
23.0286  0.360718
23.0476  0.740479
23.0666  0.739321
23.0856  0.51885
23.1046  0.468756
23.1235  0.526644
23.1425  0.410742
23.1615  0.425508
23.1805  0.42023
23.1995  0.665499
23.2185  0.454301
23.2375  0.271966
23.2565  -0.0358996
23.2754  0.0390381
23.2944  0.0451514
23.3134  0.235266
23.3324  0.36209
23.3514  0.501429
23.3704  0.409167
23.3894  0.325914
23.4083  0.498275
23.4273  0.335795
23.4463  0.191826
23.4653  0.0625783
23.4843  0.0243342
23.5033  -0.0291838
23.5223  -0.0838813
23.5412  -0.176444
23.5602  -0.123759
23.5792  0.131286
23.5982  0.340331
23.6172  0.380699
23.6362  0.268452
23.6552  0.1496
23.6741  0.331555
23.6931  0.471805
23.7121  0.444981
23.7311  0.176225
23.7501  0.0521115
23.7691  0.00197414
23.7881  0.0830091
23.8071  -0.027803
23.826  0.161547
23.845  0.23776
23.864  0.297048
23.883  0.110001
23.902  0.0357088
23.921  0.0392858
23.94  0.372404
23.9589  0.676788
23.9779  0.48363
23.9969  0.147209
24.0159  -0.0979675
24.0349  0.140242
24.0539  0.182843
24.0729  0.140009
24.0918  -0.0680464
24.1108  -0.185972
24.1298  -0.136438
24.1488  -0.081992
24.1678  0.16048
24.1868  0.0200794
24.2058  -0.0269796
24.2247  0.0634151
24.2437  -0.0409469