File: data/processed/Run1_XRD/12_ReMoB2_60p0GPa_545psi_P1_C4_D1w_089.dat
2.82731  0.576884
2.84629  0.673908
2.86528  0.786405
2.88427  0.195879
2.90325  -0.111832
2.92224  0.134683
2.94122  0.864217
2.96021  1.45764
2.9792  1.52194
2.99818  2.08121
3.01717  1.63819
3.03616  1.43716
3.05514  1.47044
3.07413  1.53184
3.09311  2.05333
3.1121  1.46953
3.13109  1.42715
3.15007  1.34386
3.16906  1.36546
3.18805  0.72842
3.20703  1.25879
3.22602  1.38358
3.245  1.77016
3.26399  2.10257
3.28298  2.86518
3.30196  3.15306
3.32095  3.27477
3.33993  2.81588
3.35892  3.45959
3.37791  3.90846
3.39689  5.50547
3.41588  7.36967
3.43487  10.0833
3.45385  13.8664
3.47284  20.0041
3.49182  27.5204
3.51081  34.334
3.5298  36.6277
3.54878  33.6501
3.56777  26.0336
3.58676  18.1511
3.60574  11.5507
3.62473  7.49574
3.64371  5.05178
3.6627  3.47757
3.68169  2.98487
3.70067  2.2008
3.71966  2.0033
3.73864  1.75712
3.75763  2.17095
3.77662  2.0743
3.7956  1.97325
3.81459  1.59339
3.83358  1.1191
3.85256  1.02861
3.87155  1.08504
3.89053  1.42428
3.90952  1.29933
3.92851  1.15939
3.94749  0.802482
3.96648  1.05697
3.98547  0.713821
4.00445  0.27503
4.02344  0.443421
4.04242  0.523209
4.06141  0.857594
4.0804  0.973936
4.09938  1.3182
4.11837  1.16614
4.13735  0.607617
4.15634  0.434177
4.17533  0.689336
4.19431  0.811664
4.2133  0.703824
4.23229  1.03076
4.25127  1.07976
4.27026  0.897458
4.28924  0.503669
4.30823  0.603069
4.32722  0.478858
4.3462  0.415196
4.36519  0.241672
4.38418  0.504541
4.40316  0.286312
4.42215  0.15714
4.44113  0.14357
4.46012  0.257312
4.47911  -0.21896
4.49809  -0.390445
4.51708  -0.0278216
4.53606  0.0481049
4.55505  0.219569
4.57404  0.17674
4.59302  0.702091
4.61201  0.503825
4.631  0.218328
4.64998  0.147187
4.66897  0.389769
4.68795  0.987348
4.70694  0.838468
4.72593  1.16731
4.74491  0.863126
4.7639  1.29554
4.78289  1.11295
4.80187  1.09257
4.82086  1.08706
4.83984  0.884099
4.85883  0.926918
4.87782  0.694001
4.8968  0.937532
4.91579  1.11749
4.93478  1.02841
4.95376  1.1759
4.97275  0.378395
4.99173  0.403623
5.01072  0.254223
5.02971  1.68025
5.04869  2.02901
5.06768  1.8149
5.08666  0.715411
5.10565  0.140818
5.12464  -0.110099
5.14362  0.199017
5.16261  -0.146224
5.1816  -0.213073
5.20058  -0.250855
5.21957  -0.174988
5.23855  0.398116
5.25754  0.499886
5.27653  0.764335
5.29551  0.884242
5.3145  0.414646
5.33349  0.362136
5.35247  0.405874
5.37146  1.06448
5.39044  1.0843
5.40943  1.05159
5.42842  0.938297
5.4474  0.988185
5.46639  0.455266
5.48537  0.651068
5.50436  0.349612
5.52335  0.209715
5.54233  -0.00616888
5.56132  1.0078
5.58031  2.02986
5.59929  2.44834
5.61828  1.81852
5.63726  0.800145
5.65625  0.504871
5.67524  0.799481
5.69422  1.91865
5.71321  2.15797
5.7322  1.84678
5.75118  1.2524
5.77017  1.13393
5.78915  1.25703
5.80814  1.41802
5.82713  1.22891
5.84611  1.59088
5.8651  1.42485
5.88408  1.39449
5.90307  0.991715
5.92206  0.550922
5.94104  0.505632
5.96003  -0.211985
5.97902  0.206945
5.998  0.491406
6.01699  1.12122
6.03597  1.39167
6.05496  1.69094
6.07395  1.22699
6.09293  0.771901
6.11192  0.258097
6.13091  -0.149958
6.14989  -0.160615
6.16888  -0.507374
6.18786  -0.53401
6.20685  -0.0110125
6.22584  0.774978
6.24482  1.21528
6.26381  0.988929
6.28279  1.03198
6.30178  1.35111
6.32077  1.64178
6.33975  1.88375
6.35874  1.69658
6.37773  1.85073
6.39671  2.39542
6.4157  3.48308
6.43468  4.54517
6.45367  5.383
6.47266  5.888
6.49164  5.1895
6.51063  4.89339
6.52962  3.92683
6.5486  3.38183
6.56759  3.17502
6.58657  3.89251
6.60556  4.61249
6.62455  5.22198
6.64353  6.31986
6.66252  8.0396
6.6815  10.5763
6.70049  13.9485
6.71948  18.4275
6.73846  23.6806
6.75745  28.9683
6.77644  33.5247
6.79542  36.7544
6.81441  38.0047
6.83339  37.5087
6.85238  36.3341
6.87137  36.636
6.89035  38.3494
6.90934  42.5765
6.92833  50.2089
6.94731  63.2418
6.9663  83.3709
6.98528  110.898
7.00427  146.721
7.02326  184.584
7.04224  216.83
7.06123  236.366
7.08021  232.278
7.0992  209.386
7.11819  173.483
7.13717  134.446
7.15616  100.185
7.17515  72.9883
7.19413  52.5246
7.21312  38.5885
7.2321  28.5677
7.25109  21.3293
7.27008  16.4641
7.28906  13.5614
7.30805  11.0049
7.32704  8.96074
7.34602  7.59827
7.36501  6.74168
7.38399  5.80332
7.40298  5.06579
7.42197  4.17094
7.44095  3.50677
7.45994  2.67359
7.47892  2.03501
7.49791  1.84702
7.5169  1.72253
7.53588  1.83546
7.55487  1.84124
7.57386  1.34799
7.59284  0.439362
7.61183  0.167713
7.63081  0.0986473
7.6498  0.557448
7.66879  0.639239
7.68777  0.689847
7.70676  0.468911
7.72575  0.0937046
7.74473  0.42819
7.76372  1.48509
7.7827  1.25166
7.80169  0.750171
7.82068  -0.146453
7.83966  -0.115938
7.85865  0.428396
7.87764  0.699096
7.89662  0.750468
7.91561  0.381902
7.93459  0.710426
7.95358  0.301831
7.97257  -0.0981788
7.99155  -0.367671
8.01054  0.0149903
8.02952  0.239987
8.04851  -0.104407
8.0675  -0.386748
8.08648  -0.197929
8.10547  -0.0510884
8.12446  0.0754169
8.14344  0.510793
8.16243  0.503914
8.18141  0.176063
8.2004  -0.242219
8.21939  -0.255709
8.23837  -0.0587653
8.25736  0.0868456
8.27635  0.235959
8.29533  0.281819
8.31432  0.342357
8.3333  0.4354
8.35229  0.452415
8.37128  0.540046
8.39026  0.45339
8.40925  0.406499
8.42823  0.441117
8.44722  0.909063
8.46621  1.20467
8.48519  1.38823
8.50418  1.63698
8.52317  1.53693
8.54215  1.17292
8.56114  1.09899
8.58012  0.7646
8.59911  0.859648
8.6181  0.934724
8.63708  1.04266
8.65607  0.59333
8.67506  0.246186
8.69404  -0.418342
8.71303  -0.33436
8.73201  -0.302346
8.751  -0.41027
8.76999  -0.526952
8.78897  -0.916489
8.80796  -0.992412
8.82694  -1.27426
8.84593  -0.982524
8.86492  -0.645539
8.8839  -0.140799
8.90289  0.0207571
8.92188  -0.0399053
8.94086  -0.108692
8.95985  0.0554537
8.97883  0.809108
8.99782  1.47655
9.01681  2.7595
9.03579  3.76141
9.05478  4.81412
9.07377  6.44095
9.09275  8.42344
9.11174  11.7055
9.13072  16.0876
9.14971  22.3845
9.1687  30.2418
9.18768  42.5386
9.20667  61.1084
9.22565  87.9199
9.24464  123.576
9.26363  172.542
9.28261  232.612
9.3016  306.376
9.32059  390.967
9.33957  474.997
9.35856  537.334
9.37754  572.011
9.39653  569.488
9.41552  538.264
9.4345  489.499
9.45349  449.678
9.47248  452.358
9.49146  495.642
9.51045  585.12
9.52943  705.835
9.54842  843.814
9.56741  981.548
9.58639  1078.09
9.60538  1131.64
9.62436  1146.39
9.64335  1136.15
9.66234  1123.68
9.68132  1080.82
9.70031  1003.72
9.7193  885.349
9.73828  758.931
9.75727  646.306
9.77625  542.833
9.79524  450.954
9.81423  370.74
9.83321  304.051
9.8522  250.18
9.87119  206.482
9.89017  172.637
9.90916  143.376
9.92814  118.227
9.94713  95.9998
9.96612  77.6578
9.9851  61.7294
10.0041  49.7882
10.0231  39.0297
10.0421  30.159
10.061  23.3728
10.08  17.4772
10.099  13.5565
10.118  9.74984
10.137  6.90499
10.156  4.82673
10.175  3.05208
10.194  2.05576
10.2129  0.940809
10.2319  0.302607
10.2509  -0.244162
10.2699  -1.06244
10.2889  -1.21652
10.3079  -1.43881
10.3269  -1.2597
10.3458  -1.31091
10.3648  -1.237
10.3838  -1.46753
10.4028  -1.97345
10.4218  -1.9228
10.4408  -1.68288
10.4598  -1.32552
10.4787  -1.52017
10.4977  -0.386416
10.5167  1.48362
10.5357  3.61659
10.5547  5.60517
10.5737  8.33948
10.5927  10.6589
10.6116  12.2902
10.6306  13.1486
10.6496  13.6765
10.6686  14.364
10.6876  15.692
10.7066  17.2585
10.7256  19.8967
10.7446  22.6463
10.7635  26.6127
10.7825  30.1693
10.8015  33.9631
10.8205  38.4835
10.8395  43.5424
10.8585  47.7862
10.8775  52.6576
10.8964  58.2342
10.9154  62.6568
10.9344  65.7462
10.9534  69.5192
10.9724  74.271
10.9914  77.6352
11.0104  82.853
11.0293  87.3718
11.0483  92.7067
11.0673  97.647
11.0863  100.941
11.1053  104.897
11.1243  106.006
11.1433  105.631
11.1622  103.288
11.1812  98.8786
11.2002  93.4495
11.2192  88.6942
11.2382  85.0372
11.2572  82.7426
11.2762  82.124
11.2951  81.6209
11.3141  83.2055
11.3331  84.0214
11.3521  84.7319
11.3711  84.2786
11.3901  82.1183
11.4091  79.3885
11.4281  73.6784
11.447  65.4543
11.466  55.1662
11.485  45.2883
11.504  36.3455
11.523  28.9512
11.542  22.6114
11.561  17.745
11.5799  14.4227
11.5989  11.7462
11.6179  9.9841
11.6369  8.46435
11.6559  7.63813
11.6749  6.04465
11.6939  4.04303
11.7128  1.77158
11.7318  -0.0228026
11.7508  -0.262274
11.7698  -0.10615
11.7888  -0.349457
11.8078  -0.413643
11.8268  -0.414052
11.8457  0.0142308
11.8647  -0.0779211
11.8837  0.319537
11.9027  0.52529
11.9217  1.50325
11.9407  2.99772
11.9597  3.98149
11.9787  6.70922
11.9976  8.32194
12.0166  11.6761
12.0356  14.788
12.0546  19.9772
12.0736  26.7014
12.0926  33.4212
12.1116  43.2823
12.1305  52.024
12.1495  64.7508
12.1685  78.1893
12.1875  89.13
12.2065  98.4402
12.2255  103.066
12.2445  100.675
12.2634  88.6765
12.2824  74.9559
12.3014  57.6047
12.3204  44.7745
12.3394  33.3819
12.3584  26.577
12.3774  22.2226
12.3963  19.5565
12.4153  18.3818
12.4343  18.0497
12.4533  18.5598
12.4723  19.2003
12.4913  19.9449
12.5103  21.2648
12.5293  23.2504
12.5482  25.9356
12.5672  28.7379
12.5862  32.3415
12.6052  37.5977
12.6242  44.3103
12.6432  51.8922
12.6622  59.066
12.6811  68.651
12.7001  78.2085
12.7191  88.2766
12.7381  95.4865
12.7571  100.423
12.7761  104.154
12.7951  106.673
12.814  108.146
12.833  108.116
12.852  106.754
12.871  107.163
12.89  105.9
12.909  104.723
12.928  103.699
12.9469  102.852
12.9659  104.33
12.9849  103.432
13.0039  105.165
13.0229  105.488
13.0419  105.603
13.0609  107.211
13.0799  107.447
13.0988  110.425
13.1178  111.928
13.1368  114.045
13.1558  114.856
13.1748  114.348
13.1938  112.88
13.2128  109.639
13.2317  108.339
13.2507  103.065
13.2697  100.363
13.2887  95.8533
13.3077  91.0203
13.3267  84.716
13.3457  78.2846
13.3646  72.6289
13.3836  66.9775
13.4026  62.0026
13.4216  57.4635
13.4406  53.5372
13.4596  49.9516
13.4786  46.9855
13.4975  44.3437
13.5165  41.9514
13.5355  39.8203
13.5545  37.5387
13.5735  35.1991
13.5925  33.2184
13.6115  30.522
13.6305  27.1741
13.6494  22.8138
13.6684  19.0351
13.6874  14.4872
13.7064  10.0786
13.7254  5.91896
13.7444  3.10534
13.7634  1.13489
13.7823  -0.623148
13.8013  -1.68146
13.8203  -2.3375
13.8393  -2.17278
13.8583  -1.62966
13.8773  -0.665299
13.8963  0.264055
13.9152  1.60458
13.9342  2.7296
13.9532  3.76554
13.9722  5.41417
13.9912  7.12685
14.0102  8.73743
14.0292  10.2349
14.0481  11.9015
14.0671  14.2555
14.0861  16.7765
14.1051  20.394
14.1241  22.4963
14.1431  23.9394
14.1621  23.0294
14.1811  20.8913
14.2  17.6859
14.219  14.2159
14.238  11.3458
14.257  8.76864
14.276  7.19157
14.295  5.9657
14.314  5.07352
14.3329  4.38975
14.3519  3.23328
14.3709  2.38838
14.3899  1.29157
14.4089  0.799697
14.4279  0.351234
14.4469  0.073491
14.4658  0.0526138
14.4848  -0.116413
14.5038  -0.290596
14.5228  -0.50969
14.5418  -0.216784
14.5608  -0.217678
14.5798  -0.0177386
14.5987  -0.221819
14.6177  0.0664964
14.6367  -0.437071
14.6557  -0.323381
14.6747  -0.615436
14.6937  -0.585865
14.7127  -0.668032
14.7317  -0.651648
14.7506  -0.590223
14.7696  -0.595503
14.7886  -0.175485
14.8076  0.164465
14.8266  0.481406
14.8456  0.210757
14.8646  0.232759
14.8835  -0.0832729
14.9025  -0.126601
14.9215  -0.199458
14.9405  0.0590509
14.9595  0.10367
14.9785  0.0549373
14.9975  -0.0189572
15.0164  0.0893419
15.0354  0.291844
15.0544  0.549208
15.0734  1.21748
15.0924  1.6442
15.1114  1.58412
15.1304  1.43965
15.1493  0.77429
15.1683  0.658038
15.1873  1.25761
15.2063  1.16236
15.2253  0.951934
15.2443  0.200043
15.2633  0.124139
15.2823  0.0601871
15.3012  0.311457
15.3202  0.419134
15.3392  0.244906
15.3582  0.314402
15.3772  0.117357
15.3962  0.472567
15.4152  0.611754
15.4341  0.556904
15.4531  0.610272
15.4721  0.65567
15.4911  0.460042
15.5101  -0.136808
15.5291  -0.52995
15.5481  -0.553415
15.567  -0.0028846
15.586  0.0958366
15.605  0.727739
15.624  0.688767
15.643  0.937551
15.662  1.14212
15.681  1.22029
15.6999  1.1291
15.7189  0.660434
15.7379  0.636171
15.7569  1.24989
15.7759  1.69011
15.7949  2.01613
15.8139  1.73973
15.8329  1.73713
15.8518  1.94513
15.8708  2.4991
15.8898  3.13866
15.9088  3.6463
15.9278  3.7693
15.9468  3.89909
15.9658  4.39169
15.9847  5.04767
16.0037  5.72187
16.0227  6.28606
16.0417  7.12358
16.0607  8.06452
16.0797  8.62095
16.0987  8.95781
16.1176  9.57841
16.1366  9.86188
16.1556  10.653
16.1746  11.013
16.1936  11.6749
16.2126  12.506
16.2316  13.8648
16.2505  15.4416
16.2695  17.043
16.2885  18.6425
16.3075  19.6894
16.3265  20.8047
16.3455  21.5386
16.3645  21.083
16.3834  20.2276
16.4024  19.5256
16.4214  19.4357
16.4404  19.7618
16.4594  20.4212
16.4784  21.4879
16.4974  23.3546
16.5164  25.718
16.5353  29.2021
16.5543  33.9186
16.5733  39.7902
16.5923  45.8459
16.6113  50.909
16.6303  54.4068
16.6493  55.526
16.6682  55.0417
16.6872  52.9067
16.7062  49.8879
16.7252  45.7477
16.7442  40.7849
16.7632  35.8672
16.7822  30.6358
16.8011  26.6149
16.8201  22.2471
16.8391  18.3246
16.8581  14.8637
16.8771  12.5336
16.8961  10.8953
16.9151  9.80012
16.934  8.52988
16.953  7.552
16.972  7.18707
16.991  7.07042
17.01  6.94077
17.029  6.45556
17.048  5.7415
17.067  5.19407
17.0859  4.97705
17.1049  4.39588
17.1239  3.11055
17.1429  2.07075
17.1619  1.26563
17.1809  1.10187
17.1999  1.0609
17.2188  0.716614
17.2378  0.307445
17.2568  -0.284824
17.2758  -0.742638
17.2948  -0.862708
17.3138  -1.07651
17.3328  -0.867751
17.3517  -0.719857
17.3707  -0.649386
17.3897  -0.565956
17.4087  -0.285392
17.4277  -0.387003
17.4467  -0.449202
17.4657  -0.358933
17.4846  -0.0152328
17.5036  0.547953
17.5226  0.775293
17.5416  1.02575
17.5606  1.08097
17.5796  1.66687
17.5986  2.74361
17.6176  3.87299
17.6365  4.49658
17.6555  5.27382
17.6745  5.90342
17.6935  6.96296
17.7125  7.72302
17.7315  8.20987
17.7505  8.43842
17.7694  8.90008
17.7884  9.82777
17.8074  10.9216
17.8264  11.8345
17.8454  12.878
17.8644  14.1947
17.8834  16.107
17.9023  18.6322
17.9213  21.5658
17.9403  24.9683
17.9593  29.8261
17.9783  35.8191
17.9973  42.573
18.0163  50.4135
18.0352  59.4782
18.0542  70.0777
18.0732  81.3523
18.0922  92.0385
18.1112  102.5
18.1302  111.755
18.1492  118.773
18.1682  122.019
18.1871  120.184
18.2061  114.67
18.2251  105.202
18.2441  93.7923
18.2631  81.4067
18.2821  70.0318
18.3011  60.2134
18.32  52.3797
18.339  46.0868
18.358  41.1884
18.377  37.2092
18.396  33.9178
18.415  31.6724
18.434  29.5742
18.4529  27.4139
18.4719  25.2409
18.4909  22.7788
18.5099  20.6024
18.5289  18.1083
18.5479  15.7996
18.5669  13.4673
18.5858  10.9466
18.6048  9.26265
18.6238  8.21004
18.6428  7.48205
18.6618  6.89557
18.6808  7.08058
18.6998  7.49953
18.7188  7.52762
18.7377  7.10401
18.7567  7.17003
18.7757  7.27243
18.7947  7.46814
18.8137  8.27291
18.8327  9.21799
18.8517  10.1472
18.8706  10.4376
18.8896  10.9985
18.9086  11.6301
18.9276  12.785
18.9466  13.6862
18.9656  14.9344
18.9846  16.0178
19.0035  17.1268
19.0225  18.373
19.0415  19.5245
19.0605  20.9895
19.0795  22.54
19.0985  24.1495
19.1175  25.9809
19.1364  27.8612
19.1554  29.2098
19.1744  30.112
19.1934  30.6324
19.2124  30.5201
19.2314  29.9362
19.2504  28.5624
19.2694  26.1108
19.2883  23.1326
19.3073  20.6257
19.3263  18.0655
19.3453  15.8195
19.3643  13.3607
19.3833  11.0909
19.4023  8.58636
19.4212  6.68746
19.4402  5.27553
19.4592  3.8969
19.4782  2.60019
19.4972  1.68965
19.5162  1.44987
19.5352  1.59406
19.5541  1.59396
19.5731  1.49266
19.5921  1.74371
19.6111  3.03922
19.6301  4.55607
19.6491  6.48562
19.6681  9.13578
19.687  12.4766
19.706  16.4681
19.725  20.8225
19.744  26.1548
19.763  31.697
19.782  38.0392
19.801  44.3469
19.82  50.9666
19.8389  56.4681
19.8579  61.1649
19.8769  64.9753
19.8959  67.6454
19.9149  71.1612
19.9339  71.7104
19.9529  72.4379
19.9718  70.167
19.9908  68.5297
20.0098  63.8926
20.0288  59.748
20.0478  55.0503
20.0668  51.2313
20.0858  46.3177
20.1047  43.395
20.1237  39.9493
20.1427  38.219
20.1617  35.4829
20.1807  33.6256
20.1997  31.0119
20.2187  29.1222
20.2376  27.2269
20.2566  25.9422
20.2756  24.8746
20.2946  23.81
20.3136  23.284
20.3326  22.5013
20.3516  22.3796
20.3706  22.0355
20.3895  21.6862
20.4085  20.3131
20.4275  18.871
20.4465  17.4224
20.4655  16.6154
20.4845  15.6582
20.5035  14.8802
20.5224  14.0873
20.5414  13.4197
20.5604  12.8932
20.5794  12.4635
20.5984  12.219
20.6174  11.7284
20.6364  11.8841
20.6553  11.4544
20.6743  11.0423
20.6933  10.7434
20.7123  10.9445
20.7313  11.3979
20.7503  11.2866
20.7693  11.1006
20.7882  11.1725
20.8072  11.3705
20.8262  11.2652
20.8452  11.5166
20.8642  11.8708
20.8832  11.7792
20.9022  11.6682
20.9212  11.9499
20.9401  12.3136
20.9591  12.6489
20.9781  12.8671
20.9971  12.9227
21.0161  12.8801
21.0351  12.8732
21.0541  12.695
21.073  12.8218
21.092  13.2725
21.111  13.6122
21.13  13.4418
21.149  13.0357
21.168  12.8167
21.187  12.6372
21.2059  12.2802
21.2249  11.8277
21.2439  11.3863
21.2629  10.7031
21.2819  10.3371
21.3009  9.41604
21.3199  8.61227
21.3388  7.71897
21.3578  7.17191
21.3768  6.46623
21.3958  5.91055
21.4148  5.22237
21.4338  4.43988
21.4528  3.83527
21.4717  3.40009
21.4907  2.85049
21.5097  2.21778
21.5287  1.9038
21.5477  1.79103
21.5667  1.55074
21.5857  1.09582
21.6047  0.739584
21.6236  0.396772
21.6426  0.345224
21.6616  0.184097
21.6806  -0.449554
21.6996  -0.747884
21.7186  -0.875258
21.7376  -0.667252
21.7565  -0.525287
21.7755  -0.070915
21.7945  0.334732
21.8135  0.55448
21.8325  1.28396
21.8515  2.33
21.8705  3.87498
21.8894  5.88879
21.9084  8.33256
21.9274  11.0379
21.9464  13.8468
21.9654  17.2547
21.9844  21.5578
22.0034  26.0756
22.0223  29.8246
22.0413  32.2695
22.0603  33.2437
22.0793  32.3298
22.0983  29.6697
22.1173  25.5445
22.1363  21.144
22.1553  16.8122
22.1742  13.0466
22.1932  10.0998
22.2122  8.21007
22.2312  6.75275
22.2502  5.80456
22.2692  4.77994
22.2882  3.9697
22.3071  2.85677
22.3261  1.70993
22.3451  0.929755
22.3641  0.377523
22.3831  0.0655556
22.4021  -0.216107
22.4211  -0.244779
22.44  -0.298644
22.459  -0.353896
22.478  -0.466774
22.497  -0.217311
22.516  0.119767
22.535  0.51976
22.554  0.985137
22.5729  1.39022
22.5919  1.44106
22.6109  1.62449
22.6299  1.76421
22.6489  1.59991
22.6679  1.39206
22.6869  1.34499
22.7059  1.14917
22.7248  0.737012
22.7438  0.218778
22.7628  0.02248
22.7818  -0.368565
22.8008  -0.319058
22.8198  -0.102154
22.8388  0.162947
22.8577  0.325642
22.8767  0.349723
22.8957  0.339941
22.9147  0.432832
22.9337  0.460512
22.9527  0.297254
22.9717  0.000680811
22.9906  -0.0976861
23.0096  0.211361
23.0286  0.378348
23.0476  0.242266
23.0666  -0.055662
23.0856  -0.13328
23.1046  -0.0772569
23.1235  0.0421652
23.1425  0.178263
23.1615  0.0431862
23.1805  0.0246829
23.1995  -0.0503015
23.2185  0.146931
23.2375  0.156133
23.2565  0.240346
23.2754  0.268449
23.2944  0.2949
23.3134  0.396553
23.3324  0.194725
23.3514  0.106308
23.3704  -0.00518531
23.3894  0.311766
23.4083  0.341579
23.4273  0.196162
23.4463  0.263354
23.4653  0.514071
23.4843  0.67699
23.5033  0.543263
23.5223  0.320758
23.5412  0.0372996
23.5602  0.100921
23.5792  0.19747
23.5982  0.390141
23.6172  0.467421
23.6362  0.301267
23.6552  -0.0179488
23.6741  -0.170498
23.6931  0.108073
23.7121  0.259768
23.7311  0.227814
23.7501  -0.053252
23.7691  -0.0102962
23.7881  0.215673
23.8071  0.321473
23.826  0.251659
23.845  0.409106
23.864  0.593201
23.883  0.475144
23.902  0.257075
23.921  0.116386
23.94  0.258003
23.9589  0.186684
23.9779  0.185075
23.9969  -0.0587776
24.0159  -0.288921
24.0349  -0.237382
24.0539  0.0605004
24.0729  0.29183
24.0918  0.339017
24.1108  0.303227
24.1298  -0.0229276
24.1488  -0.301783
24.1678  -0.346105
24.1868  -0.110722
24.2058  0.203032
24.2247  0.268236
24.2437  -0.16141