File: data/processed/Run1_XRD/13_ReMoB2_62p0GPa_570psi_P1_C4_D1w_095.dat
2.82731  0.53628
2.84629  0.706619
2.86528  1.59563
2.88427  1.86815
2.90325  0.850924
2.92224  0.313963
2.94122  0.134126
2.96021  0.263746
2.9792  0.195001
2.99818  -0.196301
3.01717  0.324587
3.03616  1.10186
3.05514  1.30747
3.07413  1.01527
3.09311  1.2327
3.1121  1.71559
3.13109  1.89673
3.15007  1.01097
3.16906  0.551086
3.18805  0.640844
3.20703  1.1436
3.22602  1.65965
3.245  2.02807
3.26399  2.36394
3.28298  3.21744
3.30196  3.3071
3.32095  3.50458
3.33993  3.83754
3.35892  4.4392
3.37791  5.36362
3.39689  6.53839
3.41588  7.69371
3.43487  9.71871
3.45385  12.4634
3.47284  17.2311
3.49182  21.3662
3.51081  25.9194
3.5298  27.8269
3.54878  26.8111
3.56777  23.2718
3.58676  18.6059
3.60574  14.4647
3.62473  10.7707
3.64371  8.01509
3.6627  6.62114
3.68169  5.95368
3.70067  5.76967
3.71966  4.99767
3.73864  4.10095
3.75763  4.20386
3.77662  4.02429
3.7956  3.51849
3.81459  3.10877
3.83358  2.35099
3.85256  1.91524
3.87155  2.02439
3.89053  2.66216
3.90952  2.95223
3.92851  2.60793
3.94749  2.18233
3.96648  2.03115
3.98547  1.93319
4.00445  1.78809
4.02344  1.43387
4.04242  0.878651
4.06141  1.15101
4.0804  1.86858
4.09938  2.49654
4.11837  2.79897
4.13735  2.63296
4.15634  2.17621
4.17533  1.82856
4.19431  1.5468
4.2133  1.84415
4.23229  1.52568
4.25127  1.22427
4.27026  0.277842
4.28924  0.399097
4.30823  0.742398
4.32722  1.84593
4.3462  2.14141
4.36519  1.86983
4.38418  0.88283
4.40316  0.226404
4.42215  -0.223555
4.44113  -0.325098
4.46012  0.27052
4.47911  0.375863
4.49809  0.5589
4.51708  0.153273
4.53606  0.16885
4.55505  0.0528779
4.57404  -0.114288
4.59302  -0.0491092
4.61201  0.288184
4.631  0.605344
4.64998  0.623422
4.66897  0.252578
4.68795  0.392705
4.70694  0.706329
4.72593  1.46562
4.74491  1.72161
4.7639  1.31909
4.78289  0.6602
4.80187  0.29823
4.82086  0.137086
4.83984  0.299854
4.85883  0.433108
4.87782  0.101464
4.8968  0.580334
4.91579  0.563111
4.93478  0.748003
4.95376  0.990044
4.97275  1.47564
4.99173  1.81623
5.01072  1.45468
5.02971  0.774549
5.04869  0.38474
5.06768  0.660295
5.08666  1.16706
5.10565  1.59038
5.12464  1.07377
5.14362  0.685463
5.16261  0.430166
5.1816  0.0828199
5.20058  0.156652
5.21957  -0.399789
5.23855  0.0864825
5.25754  0.468291
5.27653  0.197283
5.29551  -0.212841
5.3145  -0.365643
5.33349  -0.048937
5.35247  0.393239
5.37146  0.649206
5.39044  0.709225
5.40943  0.706651
5.42842  0.825916
5.4474  0.579137
5.46639  0.516667
5.48537  0.69632
5.50436  1.18974
5.52335  1.15438
5.54233  1.05417
5.56132  1.19966
5.58031  1.36628
5.59929  1.5343
5.61828  1.40442
5.63726  0.589233
5.65625  0.399689
5.67524  0.215523
5.69422  0.604369
5.71321  0.683376
5.7322  1.12768
5.75118  1.20023
5.77017  1.78043
5.78915  1.71747
5.80814  1.68371
5.82713  1.20082
5.84611  1.11622
5.8651  0.687477
5.88408  0.345408
5.90307  0.479132
5.92206  -0.0568194
5.94104  -0.230232
5.96003  0.0926121
5.97902  0.391552
5.998  0.510759
6.01699  -0.277413
6.03597  -0.0502241
6.05496  -0.301438
6.07395  -0.410394
6.09293  -0.292674
6.11192  0.0317685
6.13091  0.310282
6.14989  0.178856
6.16888  0.439769
6.18786  0.713277
6.20685  0.169979
6.22584  -0.142172
6.24482  -0.177647
6.26381  -0.247321
6.28279  -0.153824
6.30178  0.0516782
6.32077  0.432624
6.33975  0.072136
6.35874  0.254205
6.37773  0.336051
6.39671  0.672078
6.4157  0.782191
6.43468  1.21295
6.45367  1.60017
6.47266  1.93108
6.49164  2.16365
6.51063  2.30101
6.52962  2.19321
6.5486  2.26158
6.56759  2.29783
6.58657  2.91299
6.60556  3.19354
6.62455  3.90692
6.64353  4.37656
6.66252  5.36801
6.6815  6.71081
6.70049  8.48668
6.71948  10.9096
6.73846  13.5832
6.75745  17.0041
6.77644  20.3753
6.79542  23.7478
6.81441  26.6107
6.83339  28.7677
6.85238  30.4767
6.87137  32.5946
6.89035  36.1725
6.90934  41.6291
6.92833  49.7871
6.94731  60.4786
6.9663  74.3197
6.98528  90.9159
7.00427  112.534
7.02326  134.113
7.04224  155.335
7.06123  170.483
7.08021  175.74
7.0992  170.914
7.11819  158.431
7.13717  139.147
7.15616  118.931
7.17515  98.5432
7.19413  79.806
7.21312  65.2459
7.2321  53.0418
7.25109  43.5303
7.27008  36.3828
7.28906  30.464
7.30805  25.8544
7.32704  21.9197
7.34602  19.1689
7.36501  16.6734
7.38399  14.5152
7.40298  12.6593
7.42197  11.5362
7.44095  10.2742
7.45994  9.22623
7.47892  8.34885
7.49791  7.61926
7.5169  6.83822
7.53588  5.77788
7.55487  4.70687
7.57386  3.88737
7.59284  3.62319
7.61183  3.62678
7.63081  3.77121
7.6498  3.65825
7.66879  3.66122
7.68777  3.44563
7.70676  3.20794
7.72575  2.62654
7.74473  1.92597
7.76372  1.6877
7.7827  1.26576
7.80169  1.10315
7.82068  0.679115
7.83966  0.23403
7.85865  0.373851
7.87764  0.743331
7.89662  1.16514
7.91561  1.0055
7.93459  0.668657
7.95358  0.153109
7.97257  0.236264
7.99155  0.600341
8.01054  0.907179
8.02952  0.607078
8.04851  -0.21517
8.0675  -0.387827
8.08648  -0.157877
8.10547  0.0369143
8.12446  -0.239554
8.14344  -0.242324
8.16243  0.123326
8.18141  0.388362
8.2004  0.414087
8.21939  0.0249278
8.23837  0.139929
8.25736  0.109952
8.27635  0.523245
8.29533  0.32885
8.31432  0.35389
8.3333  0.44582
8.35229  0.665562
8.37128  0.485464
8.39026  0.2879
8.40925  -0.0675334
8.42823  0.13277
8.44722  -0.138062
8.46621  -0.360732
8.48519  -0.167373
8.50418  0.549397
8.52317  1.08659
8.54215  1.49563
8.56114  1.45576
8.58012  1.17599
8.59911  0.862269
8.6181  0.578089
8.63708  0.467187
8.65607  0.378999
8.67506  0.105993
8.69404  -0.0283946
8.71303  0.0260035
8.73201  0.520381
8.751  0.481516
8.76999  0.358715
8.78897  -0.0650327
8.80796  -0.456289
8.82694  -0.678952
8.84593  -0.755895
8.86492  -0.62861
8.8839  -0.345185
8.90289  -0.170741
8.92188  0.608629
8.94086  0.933595
8.95985  1.52504
8.97883  1.90087
8.99782  2.84773
9.01681  4.06257
9.03579  5.23109
9.05478  6.51584
9.07377  8.54978
9.09275  11.1093
9.11174  14.5201
9.13072  19.1742
9.14971  26.1068
9.1687  35.7643
9.18768  50.3454
9.20667  71.9367
9.22565  103.452
9.24464  146.733
9.26363  203.459
9.28261  266.771
9.3016  330.913
9.32059  390.222
9.33957  423.279
9.35856  437.753
9.37754  428.625
9.39653  408.175
9.41552  383.165
9.4345  359.424
9.45349  349.304
9.47248  353.542
9.49146  374.19
9.51045  418.549
9.52943  482.289
9.54842  562.331
9.56741  639.194
9.58639  708.616
9.60538  761.773
9.62436  806.594
9.64335  850.691
9.66234  876.579
9.68132  886.588
9.70031  860.195
9.7193  810.668
9.73828  730.513
9.75727  648.037
9.77625  558.49
9.79524  482.149
9.81423  411.649
9.83321  351.788
9.8522  296.467
9.87119  246.319
9.89017  203.193
9.90916  166.34
9.92814  135.03
9.94713  109.745
9.96612  88.5977
9.9851  71.4122
10.0041  56.5108
10.0231  44.3739
10.0421  34.6017
10.061  26.8369
10.08  21.0191
10.099  16.7006
10.118  13.073
10.137  10.3369
10.156  8.53334
10.175  7.04891
10.194  5.78665
10.2129  4.90194
10.2319  4.02589
10.2509  2.99648
10.2699  1.92893
10.2889  1.03973
10.3079  -0.0697869
10.3269  -1.24953
10.3458  -1.89951
10.3648  -2.60293
10.3838  -2.83447
10.4028  -3.22088
10.4218  -3.10498
10.4408  -2.1099
10.4598  -0.787972
10.4787  0.602179
10.4977  2.48617
10.5167  5.27136
10.5357  8.4247
10.5547  11.4506
10.5737  14.291
10.5927  17.309
10.6116  20.5234
10.6306  23.2561
10.6496  25.74
10.6686  27.9929
10.6876  29.6422
10.7066  31.2548
10.7256  32.7274
10.7446  34.3416
10.7635  35.8368
10.7825  37.907
10.8015  40.0638
10.8205  42.9338
10.8395  45.8517
10.8585  49.2657
10.8775  53.463
10.8964  57.044
10.9154  61.7643
10.9344  65.021
10.9534  69.8047
10.9724  74.1844
10.9914  78.3573
11.0104  84.9096
11.0293  90.0883
11.0483  97.0324
11.0673  104.543
11.0863  110.282
11.1053  118.163
11.1243  120.306
11.1433  119.442
11.1622  115.938
11.1812  111.401
11.2002  105.883
11.2192  101.129
11.2382  93.8232
11.2572  86.8559
11.2762  80.5655
11.2951  73.0861
11.3141  67.0743
11.3331  60.2999
11.3521  54.6574
11.3711  46.9762
11.3901  38.2048
11.4091  31.7415
11.4281  26.0346
11.447  21.121
11.466  16.8849
11.485  12.7355
11.504  9.76083
11.523  7.60738
11.542  6.02255
11.561  4.88435
11.5799  3.32929
11.5989  2.37192
11.6179  1.50655
11.6369  0.92115
11.6559  0.531596
11.6749  -0.784481
11.6939  -0.76213
11.7128  -1.1129
11.7318  -1.15626
11.7508  -0.958593
11.7698  -1.17924
11.7888  -1.45475
11.8078  -2.01876
11.8268  -1.84045
11.8457  -0.809917
11.8647  -0.18483
11.8837  1.2948
11.9027  3.56424
11.9217  6.43759
11.9407  11.3837
11.9597  14.4892
11.9787  22.5652
11.9976  26.5123
12.0166  38.039
12.0356  48.7023
12.0546  61.7882
12.0736  85.8867
12.0926  100.501
12.1116  135.743
12.1305  150.962
12.1495  183.203
12.1685  203.83
12.1875  226.925
12.2065  248.816
12.2255  256.184
12.2445  245.123
12.2634  230.756
12.2824  201.294
12.3014  164.278
12.3204  139.292
12.3394  109.84
12.3584  92.5081
12.3774  78.3188
12.3963  67.5152
12.4153  62.1889
12.4343  56.9545
12.4533  54.2007
12.4723  52.7745
12.4913  51.7491
12.5103  54.447
12.5293  56.4573
12.5482  60.3393
12.5672  64.4264
12.5862  68.8134
12.6052  75.8967
12.6242  80.6339
12.6432  86.3507
12.6622  88.2677
12.6811  89.7135
12.7001  90.6
12.7191  88.5667
12.7381  88.3264
12.7571  84.9542
12.7761  83.1038
12.7951  80.8401
12.814  78.8506
12.833  79.7546
12.852  78.0334
12.871  80.0511
12.89  79.1732
12.909  80.59
12.928  81.2646
12.9469  82.0105
12.9659  84.7243
12.9849  84.7113
13.0039  87.62
13.0229  87.9456
13.0419  90.7633
13.0609  92.8484
13.0799  94.7249
13.0988  98.7363
13.1178  99.6447
13.1368  104.837
13.1558  105.677
13.1748  109.341
13.1938  110.604
13.2128  112.399
13.2317  112.529
13.2507  112.688
13.2697  111.128
13.2887  107.215
13.3077  105.082
13.3267  98.0257
13.3457  94.3311
13.3646  87.7934
13.3836  82.3993
13.4026  76.2899
13.4216  69.7585
13.4406  63.8256
13.4596  57.2014
13.4786  51.4921
13.4975  45.3716
13.5165  40.208
13.5355  35.0443
13.5545  30.3202
13.5735  26.0406
13.5925  22.436
13.6115  19.7768
13.6305  16.4842
13.6494  13.3428
13.6684  10.4574
13.6874  7.39097
13.7064  4.95945
13.7254  2.49789
13.7444  1.2655
13.7634  0.106723
13.7823  -0.717717
13.8013  -1.46119
13.8203  -2.36673
13.8393  -2.37905
13.8583  -2.46198
13.8773  -1.9072
13.8963  -1.49875
13.9152  -0.790476
13.9342  0.384365
13.9532  1.96982
13.9722  3.5875
13.9912  4.6972
14.0102  6.43281
14.0292  8.1309
14.0481  10.2282
14.0671  11.7434
14.0861  13.0663
14.1051  14.4382
14.1241  15.4062
14.1431  15.6254
14.1621  15.2831
14.1811  14.4908
14.2  13.9415
14.219  13.0312
14.238  11.8472
14.257  9.99729
14.276  8.3713
14.295  7.39518
14.314  6.73031
14.3329  6.04873
14.3519  5.10344
14.3709  4.14417
14.3899  3.33408
14.4089  2.28451
14.4279  1.662
14.4469  0.727051
14.4658  0.44864
14.4848  -0.0351273
14.5038  -0.341155
14.5228  -0.450126
14.5418  -0.116244
14.5608  0.0307644
14.5798  0.254107
14.5987  0.0362876
14.6177  0.329665
14.6367  0.338834
14.6557  0.527876
14.6747  0.228034
14.6937  -0.0409477
14.7127  -0.274626
14.7317  -0.307525
14.7506  -0.637374
14.7696  -0.860775
14.7886  -0.731738
14.8076  0.0147515
14.8266  -0.152432
14.8456  -0.577027
14.8646  -0.606774
14.8835  -0.166628
14.9025  0.0765166
14.9215  0.461037
14.9405  0.259484
14.9595  0.20767
14.9785  0.276664
14.9975  0.476488
15.0164  0.525686
15.0354  0.392019
15.0544  0.166744
15.0734  0.187734
15.0924  0.236456
15.1114  0.579884
15.1304  0.348671
15.1493  0.0307536
15.1683  0.383859
15.1873  1.25954
15.2063  1.61707
15.2253  1.5073
15.2443  0.85671
15.2633  0.21412
15.2823  -0.130363
15.3012  -0.0494359
15.3202  0.114736
15.3392  0.164651
15.3582  0.159124
15.3772  0.17235
15.3962  0.390416
15.4152  0.251348
15.4341  0.0915533
15.4531  0.217137
15.4721  0.318031
15.4911  -0.0144741
15.5101  -0.4428
15.5291  -0.530297
15.5481  -0.481524
15.567  0.102082
15.586  0.345145
15.605  0.537742
15.624  0.281223
15.643  0.0594402
15.662  0.240165
15.681  0.430867
15.6999  0.824893
15.7189  0.820121
15.7379  0.766256
15.7569  1.02647
15.7759  1.48289
15.7949  1.95906
15.8139  2.41054
15.8329  2.55874
15.8518  2.95036
15.8708  3.38792
15.8898  4.10845
15.9088  4.59018
15.9278  6.17638
15.9468  7.84757
15.9658  9.0203
15.9847  9.88442
16.0037  11.2799
16.0227  13.1549
16.0417  14.8736
16.0607  16.2876
16.0797  17.6103
16.0987  19.4465
16.1176  20.8436
16.1366  22.4951
16.1556  23.6193
16.1746  24.468
16.1936  26.1138
16.2126  27.7064
16.2316  28.857
16.2505  29.7593
16.2695  29.9117
16.2885  30.4862
16.3075  30.6863
16.3265  30.9439
16.3455  30.7276
16.3645  30.6107
16.3834  30.5191
16.4024  30.4846
16.4214  31.0609
16.4404  31.4613
16.4594  32.2183
16.4784  33.8042
16.4974  35.3668
16.5164  37.3458
16.5353  39.2623
16.5543  42.1217
16.5733  44.8187
16.5923  46.5617
16.6113  47.3834
16.6303  46.3406
16.6493  45.421
16.6682  43.1728
16.6872  41.5899
16.7062  38.6014
16.7252  35.582
16.7442  32.0429
16.7632  28.7775
16.7822  24.7742
16.8011  21.3322
16.8201  17.9949
16.8391  15.1348
16.8581  12.4464
16.8771  10.43
16.8961  8.81249
16.9151  7.60446
16.934  6.39312
16.953  5.87751
16.972  5.42234
16.991  5.00758
17.01  4.60023
17.029  4.56396
17.048  4.40779
17.067  4.71072
17.0859  4.94006
17.1049  5.51752
17.1239  5.43242
17.1429  4.85142
17.1619  3.83263
17.1809  3.28288
17.1999  2.50229
17.2188  1.53534
17.2378  0.636388
17.2568  0.17441
17.2758  -0.242906
17.2948  -0.864713
17.3138  -1.56272
17.3328  -1.695
17.3517  -1.25702
17.3707  -0.93454
17.3897  -0.956757
17.4087  -1.00373
17.4277  -0.662269
17.4467  -0.175525
17.4657  -0.240173
17.4846  -0.527684
17.5036  -0.641542
17.5226  -0.149308
17.5416  0.278038
17.5606  0.611205
17.5796  1.04634
17.5986  1.89134
17.6176  2.92973
17.6365  3.51997
17.6555  3.9973
17.6745  4.82916
17.6935  5.80801
17.7125  7.03966
17.7315  8.43051
17.7505  9.9866
17.7694  12.0315
17.7884  14.505
17.8074  17.7887
17.8264  21.7475
17.8454  26.1038
17.8644  30.533
17.8834  35.624
17.9023  41.6117
17.9213  47.9291
17.9403  53.9583
17.9593  60.3452
17.9783  66.8247
17.9973  74.1582
18.0163  82.0156
18.0352  89.8813
18.0542  98.0942
18.0732  105.84
18.0922  113.401
18.1112  120.132
18.1302  125.713
18.1492  129.657
18.1682  129.631
18.1871  127.065
18.2061  122.059
18.2251  115.322
18.2441  107.585
18.2631  98.6036
18.2821  89.8466
18.3011  81.1704
18.32  72.2278
18.339  63.1385
18.358  54.827
18.377  47.1416
18.396  41.0148
18.415  35.8924
18.434  31.7563
18.4529  28.1814
18.4719  25.0952
18.4909  23.1016
18.5099  22.2755
18.5289  22.1517
18.5479  22.31
18.5669  22.4838
18.5858  22.867
18.6048  23.9833
18.6238  25.0336
18.6428  25.5185
18.6618  25.9284
18.6808  26.5364
18.6998  26.578
18.7188  25.9942
18.7377  24.9504
18.7567  24.2216
18.7757  23.5074
18.7947  22.5885
18.8137  21.305
18.8327  20.0099
18.8517  18.9581
18.8706  17.6581
18.8896  17.2927
18.9086  16.6792
18.9276  16.2293
18.9466  15.8811
18.9656  16.6962
18.9846  17.8079
19.0035  19.1765
19.0225  20.9953
19.0415  22.6485
19.0605  24.6115
19.0795  27.2435
19.0985  30.6494
19.1175  34.5147
19.1364  37.6406
19.1554  40.8186
19.1744  44.3275
19.1934  47.3597
19.2124  49.0042
19.2314  49.6093
19.2504  49.025
19.2694  48.1887
19.2883  46.0479
19.3073  42.9845
19.3263  38.975
19.3453  34.9139
19.3643  30.4523
19.3833  26.2875
19.4023  22.3206
19.4212  18.6422
19.4402  14.9844
19.4592  11.9637
19.4782  9.48964
19.4972  7.54754
19.5162  5.44788
19.5352  3.49389
19.5541  1.77451
19.5731  0.895921
19.5921  0.585809
19.6111  0.0579343
19.6301  -0.235817
19.6491  -0.255397
19.6681  0.199426
19.687  0.905958
19.706  2.11656
19.725  3.46491
19.744  5.2833
19.763  7.67593
19.782  10.7578
19.801  14.0178
19.82  18.0298
19.8389  22.6365
19.8579  27.6304
19.8769  32.2488
19.8959  37.3362
19.9149  41.0997
19.9339  43.8819
19.9529  45.5568
19.9718  46.808
19.9908  46.5485
20.0098  44.3077
20.0288  41.9773
20.0478  39.6941
20.0668  37.5221
20.0858  36.4328
20.1047  35.4246
20.1237  35.3053
20.1427  35.8307
20.1617  37.6184
20.1807  40.1956
20.1997  42.7034
20.2187  46.1293
20.2376  49.6006
20.2566  52.9654
20.2756  55.956
20.2946  57.6358
20.3136  57.8424
20.3326  57.0328
20.3516  55.6773
20.3706  52.9882
20.3895  49.8979
20.4085  46.4704
20.4275  42.5753
20.4465  38.4435
20.4655  35.0289
20.4845  31.6879
20.5035  28.8603
20.5224  26.4806
20.5414  24.7165
20.5604  23.1591
20.5794  21.4811
20.5984  19.962
20.6174  18.6303
20.6364  17.8462
20.6553  16.9365
20.6743  16.1583
20.6933  15.5845
20.7123  14.9923
20.7313  14.5545
20.7503  14.3786
20.7693  14.0648
20.7882  13.9337
20.8072  13.9909
20.8262  14.4404
20.8452  14.9334
20.8642  15.1548
20.8832  14.7797
20.9022  14.6075
20.9212  14.7891
20.9401  15.1647
20.9591  15.1342
20.9781  15.0389
20.9971  15.1003
21.0161  15.3697
21.0351  15.5189
21.0541  15.0757
21.073  14.8002
21.092  14.9056
21.111  15.345
21.13  15.6464
21.149  15.7014
21.168  15.6144
21.187  15.5697
21.2059  15.4877
21.2249  15.4854
21.2439  15.6763
21.2629  15.7421
21.2819  15.7841
21.3009  15.6348
21.3199  15.3801
21.3388  15.2158
21.3578  15.165
21.3768  14.8341
21.3958  14.2737
21.4148  12.7999
21.4338  11.5421
21.4528  10.973
21.4717  10.4005
21.4907  9.76875
21.5097  8.66031
21.5287  7.71406
21.5477  6.74137
21.5667  5.97382
21.5857  4.96067
21.6047  4.11186
21.6236  3.18819
21.6426  2.38157
21.6616  1.60056
21.6806  1.00315
21.6996  0.330861
21.7186  -0.16141
21.7376  -0.434313
21.7565  -0.59414
21.7755  -0.480589
21.7945  -0.353895
21.8135  -0.490616
21.8325  -0.910457
21.8515  -0.854054
21.8705  -0.719183
21.8894  -0.320278
21.9084  0.0716536
21.9274  1.01668
21.9464  1.84699
21.9654  2.76983
21.9844  3.40758
22.0034  4.33951
22.0223  5.47848
22.0413  6.67185
22.0603  7.75586
22.0793  8.90377
22.0983  9.85779
22.1173  10.4524
22.1363  10.3101
22.1553  10.0641
22.1742  9.45703
22.1932  8.54366
22.2122  7.22033
22.2312  5.96652
22.2502  4.43839
22.2692  3.0643
22.2882  2.13137
22.3071  1.66398
22.3261  1.07813
22.3451  0.501062
22.3641  0.239378
22.3831  0.409639
22.4021  0.412774
22.4211  0.12543
22.44  -0.380386
22.459  -0.7238
22.478  -0.419179
22.497  -0.279417
22.516  -0.210801
22.535  -0.133008
22.554  -0.0111191
22.5729  -0.0434084
22.5919  0.0219143
22.6109  0.296293
22.6299  0.66753
22.6489  0.737471
22.6679  0.887624
22.6869  1.01045
22.7059  0.946506
22.7248  0.941361
22.7438  1.03115
22.7628  1.08074
22.7818  0.94575
22.8008  0.651084
22.8198  0.397807
22.8388  0.0349226
22.8577  -0.124113
22.8767  0.00865643
22.8957  0.270551
22.9147  0.165258
22.9337  0.0401734
22.9527  -0.155153
22.9717  -0.132689
22.9906  -0.0966976
23.0096  0.100714
23.0286  0.389945
23.0476  0.479239
23.0666  0.580553
23.0856  0.190535
23.1046  -0.161978
23.1235  -0.240908
23.1425  -0.188865
23.1615  0.0379684
23.1805  0.243097
23.1995  0.334304
23.2185  0.150362
23.2375  0.172669
23.2565  0.306575
23.2754  0.588736
23.2944  0.47759
23.3134  0.320305
23.3324  0.0667435
23.3514  0.14994
23.3704  0.338264
23.3894  0.214489
23.4083  -0.023358
23.4273  -0.127493
23.4463  -0.136958
23.4653  -0.00784155
23.4843  -0.0403965
23.5033  0.161002
23.5223  0.255616
23.5412  0.235198
23.5602  0.046683
23.5792  -0.0323805
23.5982  -0.0216026
23.6172  0.153121
23.6362  0.197256
23.6552  0.249638
23.6741  0.384691
23.6931  0.518809
23.7121  0.505159
23.7311  0.42888
23.7501  0.255234
23.7691  0.131893
23.7881  -0.029959
23.8071  -0.000245419
23.826  0.233315
23.845  0.519763
23.864  0.527958
23.883  0.293595
23.902  0.0441185
23.921  -0.0310983
23.94  -0.0432603
23.9589  0.0148323
23.9779  0.0214965
23.9969  -0.00715837
24.0159  -0.0595302
24.0349  -0.0507832
24.0539  -0.0456521
24.0729  0.116504
24.0918  0.235158
24.1108  0.212754
24.1298  -0.030246
24.1488  -0.0986295
24.1678  -0.291133
24.1868  -0.211105
24.2058  0.115402
24.2247  0.395883
24.2437  -0.204136