File: data/processed/Run1_XRD/14_ReMoB2_66p0GPa_595psi_P1_C4_D1w_102.dat
2.82731  0.488369
2.84629  0.72643
2.86528  0.72083
2.88427  0.434657
2.90325  0.408801
2.92224  -0.132803
2.94122  0.00313177
2.96021  0.346222
2.9792  0.909116
2.99818  0.92058
3.01717  0.143441
3.03616  -0.108505
3.05514  0.344836
3.07413  0.891487
3.09311  1.17662
3.1121  1.51771
3.13109  1.72474
3.15007  1.50307
3.16906  1.75444
3.18805  1.22229
3.20703  1.58632
3.22602  1.76396
3.245  1.98851
3.26399  2.45804
3.28298  3.00663
3.30196  3.79215
3.32095  3.91395
3.33993  3.81062
3.35892  3.71892
3.37791  4.40662
3.39689  5.23619
3.41588  6.74519
3.43487  8.5207
3.45385  10.7039
3.47284  13.9061
3.49182  18.0977
3.51081  22.6302
3.5298  25.727
3.54878  25.2387
3.56777  22.0537
3.58676  17.1998
3.60574  12.5129
3.62473  8.62455
3.64371  6.03363
3.6627  4.50864
3.68169  3.54184
3.70067  2.86843
3.71966  2.34647
3.73864  2.42137
3.75763  2.31531
3.77662  2.27845
3.7956  2.06501
3.81459  1.56669
3.83358  0.965983
3.85256  0.918433
3.87155  0.974805
3.89053  1.23816
3.90952  1.14406
3.92851  0.547596
3.94749  0.258748
3.96648  0.464523
3.98547  0.830827
4.00445  0.716057
4.02344  0.610514
4.04242  0.032406
4.06141  -0.0471855
4.0804  0.68049
4.09938  1.65348
4.11837  1.80683
4.13735  1.44805
4.15634  1.30217
4.17533  0.852869
4.19431  0.646082
4.2133  0.665728
4.23229  0.977009
4.25127  1.09574
4.27026  1.24534
4.28924  1.5392
4.30823  1.17666
4.32722  0.801502
4.3462  0.495815
4.36519  0.354212
4.38418  0.0768627
4.40316  0.187465
4.42215  0.346607
4.44113  0.923476
4.46012  0.886124
4.47911  0.0535292
4.49809  0.00733088
4.51708  0.173542
4.53606  0.482231
4.55505  0.742595
4.57404  0.895512
4.59302  0.946211
4.61201  1.15776
4.631  1.23706
4.64998  0.633236
4.66897  0.0071647
4.68795  -0.19674
4.70694  0.332121
4.72593  1.28985
4.74491  1.57434
4.7639  2.05493
4.78289  1.63948
4.80187  1.42183
4.82086  0.935465
4.83984  0.959586
4.85883  0.982344
4.87782  0.95
4.8968  1.01293
4.91579  0.42918
4.93478  0.543323
4.95376  0.186591
4.97275  -0.13304
4.99173  -0.0686401
5.01072  -0.0750991
5.02971  0.144164
5.04869  0.0378592
5.06768  0.444122
5.08666  0.939995
5.10565  0.826442
5.12464  0.348298
5.14362  -0.108191
5.16261  0.442636
5.1816  0.629092
5.20058  0.549805
5.21957  0.207483
5.23855  0.429731
5.25754  0.960542
5.27653  1.28502
5.29551  1.3418
5.3145  1.00669
5.33349  0.590395
5.35247  0.687991
5.37146  0.410645
5.39044  0.70789
5.40943  0.72121
5.42842  0.572212
5.4474  0.189918
5.46639  0.0715177
5.48537  0.547033
5.50436  0.833162
5.52335  0.905074
5.54233  0.780385
5.56132  0.371009
5.58031  0.0669919
5.59929  -0.566479
5.61828  0.135225
5.63726  0.298552
5.65625  0.95606
5.67524  0.950742
5.69422  0.635482
5.71321  0.880655
5.7322  1.05581
5.75118  1.35875
5.77017  1.49554
5.78915  1.00923
5.80814  0.807585
5.82713  0.808181
5.84611  0.823382
5.8651  0.572182
5.88408  0.661233
5.90307  0.871351
5.92206  0.938246
5.94104  0.615639
5.96003  0.803678
5.97902  0.982691
5.998  1.66557
6.01699  1.89024
6.03597  2.31754
6.05496  2.06664
6.07395  1.8443
6.09293  1.60208
6.11192  1.29289
6.13091  1.04458
6.14989  0.622532
6.16888  0.701972
6.18786  0.0338672
6.20685  -0.00652938
6.22584  -0.141755
6.24482  0.149664
6.26381  0.0675469
6.28279  0.495581
6.30178  0.726155
6.32077  1.20509
6.33975  1.95358
6.35874  2.8773
6.37773  3.99283
6.39671  5.97246
6.4157  8.01131
6.43468  10.0196
6.45367  10.6702
6.47266  10.3354
6.49164  8.14066
6.51063  6.4134
6.52962  4.80883
6.5486  3.77954
6.56759  3.18275
6.58657  2.84167
6.60556  2.62585
6.62455  2.71798
6.64353  2.61843
6.66252  3.27428
6.6815  4.26677
6.70049  5.60463
6.71948  6.76232
6.73846  7.98462
6.75745  10.2109
6.77644  12.7452
6.79542  15.5192
6.81441  18.1442
6.83339  21.294
6.85238  23.4534
6.87137  25.3231
6.89035  26.8309
6.90934  30.195
6.92833  35.0815
6.94731  43.23
6.9663  53.6902
6.98528  68.7877
7.00427  88.1293
7.02326  110.839
7.04224  132.545
7.06123  151.123
7.08021  160.322
7.0992  158.372
7.11819  148.193
7.13717  130.066
7.15616  110.028
7.17515  89.1228
7.19413  69.5416
7.21312  53.6053
7.2321  40.2112
7.25109  30.8198
7.27008  23.0337
7.28906  17.7012
7.30805  13.5673
7.32704  10.9987
7.34602  9.141
7.36501  8.41719
7.38399  7.23324
7.40298  6.45283
7.42197  5.11203
7.44095  4.66847
7.45994  4.20744
7.47892  3.56028
7.49791  2.67539
7.5169  1.69351
7.53588  1.68416
7.55487  1.3791
7.57386  1.3387
7.59284  0.822003
7.61183  0.850502
7.63081  0.716724
7.6498  1.28516
7.66879  1.16763
7.68777  1.02603
7.70676  0.799943
7.72575  0.906306
7.74473  0.701583
7.76372  0.745402
7.7827  0.16513
7.80169  -0.108846
7.82068  -0.585274
7.83966  -0.09024
7.85865  0.47716
7.87764  0.934617
7.89662  1.02755
7.91561  0.738453
7.93459  0.386274
7.95358  0.339661
7.97257  0.298107
7.99155  0.67089
8.01054  0.794734
8.02952  0.897355
8.04851  0.99223
8.0675  1.16638
8.08648  1.0029
8.10547  0.809128
8.12446  0.288814
8.14344  0.183337
8.16243  0.154512
8.18141  -0.0895243
8.2004  0.00642357
8.21939  0.127219
8.23837  0.469856
8.25736  0.566597
8.27635  0.202795
8.29533  0.337608
8.31432  0.519807
8.3333  0.599453
8.35229  0.364037
8.37128  0.206079
8.39026  0.376469
8.40925  0.182556
8.42823  0.255101
8.44722  0.526041
8.46621  1.01829
8.48519  0.943757
8.50418  0.989084
8.52317  1.01674
8.54215  1.1164
8.56114  0.895371
8.58012  0.679112
8.59911  0.374039
8.6181  0.591104
8.63708  0.665855
8.65607  0.324533
8.67506  -0.449037
8.69404  -0.869849
8.71303  -0.830819
8.73201  -0.33201
8.751  0.0514762
8.76999  -0.548453
8.78897  -0.822788
8.80796  -1.29678
8.82694  -0.620978
8.84593  -0.307415
8.86492  -0.168815
8.8839  0.0187862
8.90289  0.01727
8.92188  -0.0669625
8.94086  0.331815
8.95985  0.58046
8.97883  0.924109
8.99782  1.22541
9.01681  1.66453
9.03579  2.79069
9.05478  4.06382
9.07377  5.26477
9.09275  6.55424
9.11174  8.16013
9.13072  10.7313
9.14971  13.5612
9.1687  17.543
9.18768  24.3833
9.20667  34.8406
9.22565  51.4774
9.24464  78.7089
9.26363  130.26
9.28261  208.117
9.3016  319.759
9.32059  449.541
9.33957  548.284
9.35856  606.151
9.37754  617.288
9.39653  600.592
9.41552  564.587
9.4345  518.92
9.45349  475.458
9.47248  442.515
9.49146  419.265
9.51045  426.542
9.52943  466.914
9.54842  532.881
9.56741  628.676
9.58639  727.03
9.60538  825.368
9.62436  900.689
9.64335  954.557
9.66234  971.455
9.68132  966.303
9.70031  932.886
9.7193  888.552
9.73828  816.819
9.75727  738.948
9.77625  647.895
9.79524  568.171
9.81423  493.809
9.83321  426.229
9.8522  365.888
9.87119  311.795
9.89017  266.571
9.90916  226.886
9.92814  192.882
9.94713  162.188
9.96612  136.124
9.9851  111.49
10.0041  90.8619
10.0231  71.9045
10.0421  57.2282
10.061  45.2574
10.08  35.8486
10.099  28.8818
10.118  22.844
10.137  17.876
10.156  13.1959
10.175  9.24666
10.194  7.03147
10.2129  5.22126
10.2319  3.89409
10.2509  2.42473
10.2699  0.977855
10.2889  -0.0773052
10.3079  -1.81237
10.3269  -2.47081
10.3458  -2.73361
10.3648  -2.72492
10.3838  -2.03917
10.4028  -1.70792
10.4218  -0.122251
10.4408  0.711052
10.4598  1.41947
10.4787  1.56753
10.4977  2.15006
10.5167  2.29682
10.5357  2.43762
10.5547  2.50325
10.5737  2.53971
10.5927  3.89744
10.6116  4.90712
10.6306  5.85006
10.6496  6.69758
10.6686  7.80344
10.6876  9.19848
10.7066  10.6093
10.7256  12.3347
10.7446  13.8597
10.7635  16.0427
10.7825  18.9685
10.8015  22.3693
10.8205  26.2215
10.8395  29.9639
10.8585  34.2993
10.8775  38.9687
10.8964  43.4006
10.9154  48.4284
10.9344  52.8048
10.9534  56.843
10.9724  61.7041
10.9914  66.0955
11.0104  71.9706
11.0293  75.9966
11.0483  80.6398
11.0673  86.3463
11.0863  91.259
11.1053  97.0411
11.1243  99.0356
11.1433  100.003
11.1622  98.7327
11.1812  95.8337
11.2002  92.7681
11.2192  89.0058
11.2382  85.7699
11.2572  81.6616
11.2762  78.6682
11.2951  74.0483
11.3141  70.6942
11.3331  65.7041
11.3521  61.6214
11.3711  56.8856
11.3901  52.7631
11.4091  48.9525
11.4281  45.2638
11.447  41.4506
11.466  37.2147
11.485  31.7605
11.504  27.1402
11.523  23.4351
11.542  20.031
11.561  17.2632
11.5799  13.9635
11.5989  11.7542
11.6179  9.22808
11.6369  7.45918
11.6559  6.67148
11.6749  5.90025
11.6939  4.70781
11.7128  3.22615
11.7318  1.70376
11.7508  0.600204
11.7698  -0.214473
11.7888  -0.773973
11.8078  -1.12403
11.8268  -1.38358
11.8457  -0.98477
11.8647  -0.847682
11.8837  -0.230227
11.9027  -0.0799202
11.9217  0.909841
11.9407  2.31821
11.9597  4.23569
11.9787  8.16288
11.9976  12.6458
12.0166  22.4611
12.0356  33.3928
12.0546  56.0091
12.0736  84.3082
12.0926  124.461
12.1116  174.599
12.1305  224.07
12.1495  297.291
12.1685  343.391
12.1875  396.402
12.2065  420.521
12.2255  432.149
12.2445  414.708
12.2634  382.765
12.2824  336.631
12.3014  278.889
12.3204  245.055
12.3394  199.232
12.3584  171.108
12.3774  141.682
12.3963  118.845
12.4153  98.4191
12.4343  82.9591
12.4533  71.3953
12.4723  62.4305
12.4913  55.2931
12.5103  50.4723
12.5293  47.2279
12.5482  45.572
12.5672  44.9579
12.5862  44.4094
12.6052  45.2503
12.6242  46.1482
12.6432  48.8264
12.6622  50.117
12.6811  52.9816
12.7001  55.3557
12.7191  57.65
12.7381  61.5881
12.7571  64.5807
12.7761  68.5522
12.7951  72.3241
12.814  75.3851
12.833  80.273
12.852  83.7036
12.871  88.8887
12.89  92.6274
12.909  96.0792
12.928  99.7741
12.9469  101.077
12.9659  103.173
12.9849  102.381
13.0039  102.969
13.0229  102.689
13.0419  101.932
13.0609  101.107
13.0799  99.7346
13.0988  98.9596
13.1178  97.9862
13.1368  97.7261
13.1558  97.0325
13.1748  94.9236
13.1938  92.7081
13.2128  89.9059
13.2317  88.9869
13.2507  85.7862
13.2697  84.3751
13.2887  80.7448
13.3077  79.1779
13.3267  76.0809
13.3457  73.9911
13.3646  71.248
13.3836  67.5787
13.4026  64.4277
13.4216  60.721
13.4406  57.6932
13.4596  53.1979
13.4786  49.6905
13.4975  44.6542
13.5165  40.5061
13.5355  36.2407
13.5545  32.3254
13.5735  28.9262
13.5925  25.3996
13.6115  22.164
13.6305  18.6978
13.6494  15.5708
13.6684  13.3767
13.6874  10.2658
13.7064  6.99192
13.7254  3.39899
13.7444  1.50587
13.7634  -0.124025
13.7823  -1.50646
13.8013  -2.32622
13.8203  -2.6299
13.8393  -2.32117
13.8583  -2.07685
13.8773  -1.15304
13.8963  -0.674543
13.9152  0.236181
13.9342  1.34883
13.9532  3.17332
13.9722  4.74525
13.9912  6.42127
14.0102  7.96626
14.0292  9.62938
14.0481  11.2911
14.0671  12.4778
14.0861  13.6861
14.1051  15.0205
14.1241  15.9534
14.1431  16.5668
14.1621  16.209
14.1811  15.9381
14.2  15.302
14.219  14.5786
14.238  13.7873
14.257  12.4862
14.276  10.9749
14.295  9.48605
14.314  8.57023
14.3329  7.14182
14.3519  5.80584
14.3709  4.43983
14.3899  3.55975
14.4089  2.9044
14.4279  2.38796
14.4469  2.08691
14.4658  1.49615
14.4848  0.929583
14.5038  0.492572
14.5228  0.41331
14.5418  0.0613466
14.5608  -0.151302
14.5798  -0.202723
14.5987  -0.308949
14.6177  -0.394916
14.6367  -1.02853
14.6557  -1.31263
14.6747  -1.10448
14.6937  -0.727023
14.7127  -0.27479
14.7317  0.0808494
14.7506  -0.2641
14.7696  -0.62457
14.7886  -0.848315
14.8076  -0.73011
14.8266  -0.986685
14.8456  -0.732002
14.8646  -0.00103262
14.8835  0.506284
14.9025  0.422859
14.9215  0.275332
14.9405  0.451268
14.9595  0.490213
14.9785  0.0283373
14.9975  -0.0125885
15.0164  0.125786
15.0354  0.0450276
15.0544  -0.031916
15.0734  0.175839
15.0924  0.812207
15.1114  1.07768
15.1304  0.913265
15.1493  0.966962
15.1683  0.961409
15.1873  1.01711
15.2063  0.936737
15.2253  1.34847
15.2443  1.42561
15.2633  1.47339
15.2823  1.33131
15.3012  1.40761
15.3202  0.957701
15.3392  0.775788
15.3582  0.438984
15.3772  0.629158
15.3962  0.602067
15.4152  0.379687
15.4341  0.495066
15.4531  0.509437
15.4721  0.49414
15.4911  -0.0393064
15.5101  -0.285356
15.5291  -0.311728
15.5481  0.157939
15.567  0.606286
15.586  0.433889
15.605  0.27477
15.624  0.106515
15.643  0.179159
15.662  -0.0835209
15.681  -0.199549
15.6999  0.0504393
15.7189  0.263822
15.7379  0.037298
15.7569  0.247242
15.7759  0.474795
15.7949  0.979533
15.8139  1.16506
15.8329  1.22524
15.8518  1.38752
15.8708  1.82231
15.8898  1.94307
15.9088  1.77921
15.9278  2.03728
15.9468  2.60736
15.9658  2.88355
15.9847  2.77183
16.0037  2.82593
16.0227  3.32544
16.0417  4.07111
16.0607  4.81124
16.0797  5.59536
16.0987  6.53486
16.1176  7.23033
16.1366  7.92894
16.1556  8.30588
16.1746  8.77853
16.1936  9.56339
16.2126  10.947
16.2316  12.2047
16.2505  12.8006
16.2695  13.6363
16.2885  14.4343
16.3075  15.3294
16.3265  15.9751
16.3455  17.0628
16.3645  18.0916
16.3834  19.191
16.4024  19.8451
16.4214  20.8054
16.4404  21.9829
16.4594  23.6605
16.4784  25.1995
16.4974  26.3775
16.5164  27.3848
16.5353  29.0266
16.5543  31.8938
16.5733  34.7288
16.5923  38.45
16.6113  43.3559
16.6303  47.1215
16.6493  51.8497
16.6682  54.6368
16.6872  57.5576
16.7062  59.4483
16.7252  60.1786
16.7442  59.9809
16.7632  58.6477
16.7822  56.8623
16.8011  52.738
16.8201  48.119
16.8391  42.1625
16.8581  35.7769
16.8771  29.8514
16.8961  24.2376
16.9151  19.4881
16.934  15.6847
16.953  12.8357
16.972  10.6365
16.991  8.67487
17.01  7.86688
17.029  7.64705
17.048  7.25598
17.067  6.95439
17.0859  6.76238
17.1049  6.40081
17.1239  5.8323
17.1429  5.62559
17.1619  5.00463
17.1809  4.39603
17.1999  3.47381
17.2188  2.53533
17.2378  1.43117
17.2568  0.49586
17.2758  -0.063164
17.2948  -0.501671
17.3138  -0.84857
17.3328  -1.01918
17.3517  -0.85317
17.3707  -0.441553
17.3897  -0.0443816
17.4087  -0.353052
17.4277  -0.89942
17.4467  -0.869123
17.4657  -0.636741
17.4846  -0.303437
17.5036  -0.174866
17.5226  0.00759083
17.5416  0.0231717
17.5606  -0.100534
17.5796  0.275574
17.5986  0.775758
17.6176  1.46739
17.6365  1.72966
17.6555  2.23278
17.6745  2.89228
17.6935  3.94536
17.7125  4.51214
17.7315  5.00569
17.7505  5.43625
17.7694  6.06484
17.7884  6.88724
17.8074  8.14344
17.8264  9.17387
17.8454  10.3084
17.8644  11.2897
17.8834  12.8226
17.9023  15.1821
17.9213  18.4564
17.9403  21.5721
17.9593  24.5257
17.9783  27.8832
17.9973  31.9313
18.0163  36.7121
18.0352  42.2196
18.0542  48.2943
18.0732  55.3758
18.0922  63.5286
18.1112  72.5491
18.1302  82.1392
18.1492  92.4433
18.1682  103.249
18.1871  113.807
18.2061  122.941
18.2251  129.663
18.2441  132.989
18.2631  132.421
18.2821  127.412
18.3011  118.101
18.32  106.071
18.339  93.6949
18.358  82.0726
18.377  72.1409
18.396  62.826
18.415  55.4854
18.434  48.8921
18.4529  43.643
18.4719  39.2288
18.4909  35.7273
18.5099  32.2708
18.5289  29.146
18.5479  26.4105
18.5669  23.5202
18.5858  20.7351
18.6048  17.9886
18.6238  15.8424
18.6428  13.7642
18.6618  12.5021
18.6808  11.5393
18.6998  10.6829
18.7188  9.85176
18.7377  9.08937
18.7567  8.65251
18.7757  7.87043
18.7947  7.77978
18.8137  8.03677
18.8327  8.36549
18.8517  8.54282
18.8706  8.4949
18.8896  8.48468
18.9086  8.35481
18.9276  8.82229
18.9466  8.98881
18.9656  9.59138
18.9846  10.3939
19.0035  11.6127
19.0225  12.8469
19.0415  13.7241
19.0605  14.8923
19.0795  15.81
19.0985  16.9691
19.1175  18.2941
19.1364  19.9181
19.1554  21.3499
19.1744  22.59
19.1934  24.1228
19.2124  26.0022
19.2314  27.2582
19.2504  28.2824
19.2694  28.8559
19.2883  29.3985
19.3073  29.7621
19.3263  29.5142
19.3453  27.9961
19.3643  25.9095
19.3833  23.8227
19.4023  21.6559
19.4212  19.4536
19.4402  16.8394
19.4592  14.4993
19.4782  12.0619
19.4972  10.0118
19.5162  8.09145
19.5352  6.62614
19.5541  5.03225
19.5731  3.81443
19.5921  2.67187
19.6111  1.80532
19.6301  1.20148
19.6491  0.921044
19.6681  1.03381
19.687  1.35402
19.706  1.4594
19.725  2.39624
19.744  3.78716
19.763  5.49971
19.782  7.29403
19.801  9.69993
19.82  13.0498
19.8389  17.3764
19.8579  22.0224
19.8769  27.1975
19.8959  32.6443
19.9149  38.6193
19.9339  43.1762
19.9529  46.4751
19.9718  48.3042
19.9908  49.1277
20.0098  47.9996
20.0288  46.1734
20.0478  43.4649
20.0668  40.8743
20.0858  38.0588
20.1047  35.8453
20.1237  33.8261
20.1427  32.3971
20.1617  31.476
20.1807  30.9466
20.1997  29.986
20.2187  29.5191
20.2376  29.1967
20.2566  29.5273
20.2756  29.3617
20.2946  29.0882
20.3136  28.361
20.3326  27.851
20.3516  27.1472
20.3706  26.5672
20.3895  25.8119
20.4085  25.0927
20.4275  23.7589
20.4465  22.9891
20.4655  21.7891
20.4845  20.5717
20.5035  19.3549
20.5224  18.4036
20.5414  18.0991
20.5604  17.9238
20.5794  17.5985
20.5984  16.9212
20.6174  16.426
20.6364  15.8581
20.6553  15.2155
20.6743  14.7229
20.6933  14.4054
20.7123  14.4417
20.7313  14.2809
20.7503  14.0171
20.7693  13.6166
20.7882  13.0697
20.8072  13.3065
20.8262  13.2876
20.8452  13.2658
20.8642  13.1058
20.8832  13.2211
20.9022  13.473
20.9212  13.6079
20.9401  13.3416
20.9591  13.1814
20.9781  13.7658
20.9971  13.8317
21.0161  13.7605
21.0351  13.6139
21.0541  13.9614
21.073  14.0865
21.092  14.3779
21.111  14.3949
21.13  14.4614
21.149  14.6068
21.168  14.7538
21.187  14.5141
21.2059  14.2597
21.2249  13.9444
21.2439  13.738
21.2629  13.0787
21.2819  12.609
21.3009  11.8698
21.3199  11.3336
21.3388  10.5781
21.3578  9.93417
21.3768  8.88595
21.3958  7.98649
21.4148  7.41441
21.4338  7.03268
21.4528  6.47299
21.4717  5.95553
21.4907  5.45101
21.5097  5.20817
21.5287  4.90909
21.5477  4.61999
21.5667  4.33459
21.5857  3.83198
21.6047  3.34427
21.6236  2.76416
21.6426  2.02472
21.6616  1.34384
21.6806  1.02748
21.6996  0.79443
21.7186  0.566249
21.7376  0.327136
21.7565  0.0564707
21.7755  0.0466984
21.7945  -0.280328
21.8135  -0.582774
21.8325  -1.02531
21.8515  -1.02438
21.8705  -1.15646
21.8894  -0.974967
21.9084  -0.422243
21.9274  0.326415
21.9464  1.07909
21.9654  1.26746
21.9844  1.56438
22.0034  2.11889
22.0223  2.76932
22.0413  3.73309
22.0603  4.81806
22.0793  5.70763
22.0983  6.48979
22.1173  7.12083
22.1363  7.95749
22.1553  8.65431
22.1742  9.00581
22.1932  8.92592
22.2122  8.91049
22.2312  8.68301
22.2502  8.05698
22.2692  7.006
22.2882  6.052
22.3071  5.02391
22.3261  4.30012
22.3451  3.68679
22.3641  3.11168
22.3831  2.505
22.4021  2.02542
22.4211  1.7756
22.44  1.57848
22.459  1.25015
22.478  0.796899
22.497  0.173003
22.516  -0.278876
22.535  -0.655512
22.554  -0.581725
22.5729  -0.255859
22.5919  -0.0668848
22.6109  0.0680162
22.6299  0.28449
22.6489  0.342478
22.6679  0.304337
22.6869  0.36414
22.7059  0.325864
22.7248  0.246221
22.7438  0.239709
22.7628  0.244329
22.7818  0.28151
22.8008  0.479658
22.8198  0.445181
22.8388  0.453416
22.8577  0.230347
22.8767  0.0339612
22.8957  0.0849011
22.9147  0.25028
22.9337  0.390921
22.9527  0.348074
22.9717  0.0353009
22.9906  -0.18236
23.0096  -0.255258
23.0286  -0.0333136
23.0476  0.285515
23.0666  0.406889
23.0856  0.188325
23.1046  -0.0569269
23.1235  -0.202857
23.1425  -0.127908
23.1615  0.134567
23.1805  0.266679
23.1995  0.185357
23.2185  0.331434
23.2375  0.601503
23.2565  0.394023
23.2754  0.0385753
23.2944  0.0405102
23.3134  0.187063
23.3324  0.178055
23.3514  0.134268
23.3704  0.2245
23.3894  0.327484
23.4083  0.398352
23.4273  0.495362
23.4463  0.361378
23.4653  0.0935292
23.4843  -0.100595
23.5033  0.0559268
23.5223  0.162816
23.5412  0.111124
23.5602  0.234552
23.5792  0.216446
23.5982  0.0154324
23.6172  -0.0885973
23.6362  -0.0550551
23.6552  -0.0422984
23.6741  -0.0307311
23.6931  0.370972
23.7121  0.48293
23.7311  0.20582
23.7501  -0.0252334
23.7691  -0.101517
23.7881  -0.0585788
23.8071  0.124774
23.826  0.349709
23.845  0.388125
23.864  0.214969
23.883  0.186812
23.902  0.311939
23.921  0.574387
23.94  0.519647
23.9589  0.399972
23.9779  0.273342
23.9969  0.0988929
24.0159  0.096664
24.0349  -0.142927
24.0539  -0.113652
24.0729  -0.245101
24.0918  0.0183814
24.1108  0.162494
24.1298  0.314427
24.1488  0.193395
24.1678  -0.0150813
24.1868  -0.249832
24.2058  -0.122029
24.2247  0.0495694
24.2437  0.0498751