File: data/processed/Run1_XRD/15_ReMoB2_71p0GPa_620psi_P1_C4_D1w_108.dat
2.82731  0.306275
2.84629  0.243839
2.86528  0.954907
2.88427  1.46681
2.90325  1.83999
2.92224  1.41271
2.94122  0.974992
2.96021  0.834202
2.9792  0.669512
2.99818  0.94489
3.01717  0.71657
3.03616  0.477577
3.05514  0.180613
3.07413  0.252283
3.09311  0.521011
3.1121  1.09013
3.13109  1.95167
3.15007  1.54498
3.16906  1.33039
3.18805  0.724756
3.20703  0.992241
3.22602  1.32211
3.245  1.42819
3.26399  1.26724
3.28298  1.32817
3.30196  0.995484
3.32095  1.28205
3.33993  2.32422
3.35892  2.9762
3.37791  3.53214
3.39689  3.069
3.41588  4.02156
3.43487  5.88806
3.45385  8.87782
3.47284  13.3298
3.49182  20.1472
3.51081  29.1143
3.5298  39.3454
3.54878  46.3042
3.56777  45.4278
3.58676  36.9506
3.60574  25.0059
3.62473  15.0309
3.64371  9.15267
3.6627  5.32915
3.68169  3.43174
3.70067  2.72323
3.71966  2.21058
3.73864  1.90411
3.75763  1.4602
3.77662  1.43091
3.7956  1.0156
3.81459  0.869791
3.83358  0.284624
3.85256  0.506599
3.87155  0.734653
3.89053  0.97453
3.90952  1.02762
3.92851  0.773723
3.94749  1.42627
3.96648  1.65077
3.98547  1.17329
4.00445  0.728777
4.02344  0.822714
4.04242  1.8126
4.06141  2.10686
4.0804  1.88684
4.09938  1.10167
4.11837  0.389713
4.13735  0.0530385
4.15634  0.189249
4.17533  0.199695
4.19431  0.75237
4.2133  0.828511
4.23229  0.919287
4.25127  1.06355
4.27026  1.99157
4.28924  2.3647
4.30823  2.59412
4.32722  2.27219
4.3462  1.59339
4.36519  1.01782
4.38418  0.713106
4.40316  0.392874
4.42215  -0.0631634
4.44113  -0.33493
4.46012  -0.0404658
4.47911  0.0501046
4.49809  0.607449
4.51708  0.92286
4.53606  0.768038
4.55505  0.47538
4.57404  0.535006
4.59302  0.500927
4.61201  0.0856192
4.631  0.319452
4.64998  0.529316
4.66897  0.837663
4.68795  0.418793
4.70694  0.169271
4.72593  0.00121361
4.74491  0.441687
4.7639  0.980026
4.78289  1.21992
4.80187  1.06636
4.82086  0.395458
4.83984  0.698883
4.85883  0.709581
4.87782  0.750222
4.8968  0.420353
4.91579  0.669264
4.93478  1.06113
4.95376  1.6936
4.97275  1.78078
4.99173  1.25936
5.01072  1.11373
5.02971  1.21004
5.04869  1.3203
5.06768  0.945673
5.08666  0.616198
5.10565  0.214323
5.12464  0.0777205
5.14362  -0.278692
5.16261  -0.0807904
5.1816  0.497112
5.20058  0.6092
5.21957  0.566193
5.23855  0.65929
5.25754  1.00919
5.27653  1.24346
5.29551  1.24357
5.3145  0.858552
5.33349  0.420669
5.35247  -0.00284071
5.37146  0.555901
5.39044  1.14558
5.40943  1.1685
5.42842  0.715091
5.4474  0.210644
5.46639  -0.135626
5.48537  0.352353
5.50436  0.178504
5.52335  0.460691
5.54233  0.072413
5.56132  0.476011
5.58031  0.831203
5.59929  0.67744
5.61828  0.47921
5.63726  -0.172593
5.65625  0.123192
5.67524  0.411433
5.69422  0.742649
5.71321  0.99421
5.7322  1.06132
5.75118  1.37602
5.77017  1.15963
5.78915  1.35047
5.80814  1.37517
5.82713  1.27842
5.84611  1.13335
5.8651  1.32258
5.88408  1.42111
5.90307  1.08461
5.92206  0.56011
5.94104  0.433502
5.96003  0.880901
5.97902  1.55099
5.998  2.53533
6.01699  2.73814
6.03597  2.7626
6.05496  2.33827
6.07395  2.17706
6.09293  1.66398
6.11192  0.786292
6.13091  0.275387
6.14989  0.103759
6.16888  0.0432037
6.18786  0.0162248
6.20685  -0.070813
6.22584  -0.336944
6.24482  0.185065
6.26381  0.89836
6.28279  1.13564
6.30178  0.887749
6.32077  0.787133
6.33975  1.09454
6.35874  1.36031
6.37773  1.36294
6.39671  1.20468
6.4157  1.99497
6.43468  3.91135
6.45367  5.00528
6.47266  5.64292
6.49164  5.45576
6.51063  4.77896
6.52962  3.78842
6.5486  2.61268
6.56759  2.10732
6.58657  2.15302
6.60556  2.30662
6.62455  2.74032
6.64353  3.07213
6.66252  3.33518
6.6815  4.07787
6.70049  6.09339
6.71948  9.50103
6.73846  14.3094
6.75745  21.1707
6.77644  30.3616
6.79542  42.2418
6.81441  54.8236
6.83339  66.2378
6.85238  72.453
6.87137  72.9353
6.89035  67.3418
6.90934  59.1201
6.92833  51.7424
6.94731  48.0205
6.9663  51.0313
6.98528  60.211
7.00427  78.5927
7.02326  107.387
7.04224  144.185
7.06123  189.33
7.08021  232.446
7.0992  258.617
7.11819  262.746
7.13717  236.634
7.15616  199.377
7.17515  156.48
7.19413  119.46
7.21312  88.2006
7.2321  63.6892
7.25109  45.5512
7.27008  32.9659
7.28906  24.7203
7.30805  19.0179
7.32704  15.5572
7.34602  12.9677
7.36501  10.7179
7.38399  8.44723
7.40298  7.18208
7.42197  6.31427
7.44095  5.3885
7.45994  4.02817
7.47892  3.24515
7.49791  2.59492
7.5169  2.09446
7.53588  1.60715
7.55487  1.65187
7.57386  1.9118
7.59284  1.64565
7.61183  1.12696
7.63081  0.51718
7.6498  0.176309
7.66879  -0.087975
7.68777  0.0308801
7.70676  0.0576737
7.72575  0.180321
7.74473  0.173234
7.76372  0.777873
7.7827  0.582761
7.80169  0.35426
7.82068  0.123889
7.83966  0.712724
7.85865  1.03526
7.87764  1.11551
7.89662  0.988427
7.91561  1.05043
7.93459  0.694774
7.95358  0.626536
7.97257  0.7544
7.99155  0.596157
8.01054  0.492029
8.02952  0.352405
8.04851  0.234
8.0675  0.386184
8.08648  0.809532
8.10547  0.757238
8.12446  0.424232
8.14344  0.107683
8.16243  -0.179903
8.18141  -0.00241546
8.2004  0.230131
8.21939  0.848251
8.23837  1.47594
8.25736  1.44789
8.27635  1.01878
8.29533  1.15086
8.31432  1.2537
8.3333  1.31975
8.35229  0.364347
8.37128  -0.126911
8.39026  -0.0221322
8.40925  0.356263
8.42823  0.989179
8.44722  1.04067
8.46621  1.35318
8.48519  1.48976
8.50418  1.53892
8.52317  1.19405
8.54215  1.11234
8.56114  1.47529
8.58012  1.10384
8.59911  0.821862
8.6181  0.657754
8.63708  0.72805
8.65607  0.548046
8.67506  -0.101447
8.69404  -0.270101
8.71303  -0.555308
8.73201  -0.374385
8.751  -0.0880615
8.76999  0.134444
8.78897  -0.154115
8.80796  -0.542748
8.82694  -0.965932
8.84593  -1.28696
8.86492  -1.01542
8.8839  -1.02984
8.90289  -0.862418
8.92188  -0.556471
8.94086  0.307282
8.95985  0.932733
8.97883  1.63179
8.99782  2.19157
9.01681  3.23982
9.03579  4.15055
9.05478  5.40702
9.07377  6.78134
9.09275  8.00934
9.11174  8.96848
9.13072  10.5662
9.14971  12.4577
9.1687  15.0772
9.18768  18.9525
9.20667  25.6547
9.22565  37.1083
9.24464  55.4135
9.26363  87.1052
9.28261  138.026
9.3016  213.326
9.32059  313.422
9.33957  435.698
9.35856  558.256
9.37754  682.898
9.39653  768.997
9.41552  807.307
9.4345  803.519
9.45349  761.847
9.47248  714.685
9.49146  656.172
9.51045  598.812
9.52943  562.356
9.54842  550.928
9.56741  579.947
9.58639  634.528
9.60538  707.574
9.62436  772.49
9.64335  825.855
9.66234  860.543
9.68132  880.096
9.70031  898.918
9.7193  897.042
9.73828  869.153
9.75727  814.485
9.77625  738.025
9.79524  652.984
9.81423  568.471
9.83321  492.882
9.8522  421.764
9.87119  360.75
9.89017  307.563
9.90916  262.314
9.92814  224.107
9.94713  193.474
9.96612  166.639
9.9851  147.113
10.0041  127.709
10.0231  111.492
10.0421  95.0972
10.061  80.5656
10.08  65.494
10.099  54.852
10.118  43.3614
10.137  34.9043
10.156  27.2665
10.175  20.2727
10.194  15.2503
10.2129  10.1282
10.2319  6.6445
10.2509  3.82438
10.2699  1.9985
10.2889  0.854896
10.3079  -0.725522
10.3269  -1.69479
10.3458  -1.98181
10.3648  -1.95751
10.3838  -1.66488
10.4028  -1.1307
10.4218  0.0777796
10.4408  0.8288
10.4598  0.80587
10.4787  0.388917
10.4977  -0.36003
10.5167  -1.06644
10.5357  -1.11018
10.5547  -0.466859
10.5737  0.293349
10.5927  2.02805
10.6116  3.70649
10.6306  5.87477
10.6496  7.68469
10.6686  10.0121
10.6876  11.3214
10.7066  12.0446
10.7256  13.0446
10.7446  13.4059
10.7635  14.8047
10.7825  16.209
10.8015  18.2085
10.8205  20.6315
10.8395  22.9561
10.8585  26.1688
10.8775  30.1146
10.8964  34.346
10.9154  38.8466
10.9344  43.6213
10.9534  47.9163
10.9724  52.0515
10.9914  56.0941
11.0104  60.1963
11.0293  63.9824
11.0483  67.7831
11.0673  72.7977
11.0863  77.9804
11.1053  83.2308
11.1243  87.1443
11.1433  90.4583
11.1622  93.5966
11.1812  95.224
11.2002  96.0235
11.2192  93.9266
11.2382  92.2234
11.2572  90.3182
11.2762  87.6477
11.2951  84.982
11.3141  81.5334
11.3331  77.7945
11.3521  74.8927
11.3711  71.3218
11.3901  67.9811
11.4091  63.4807
11.4281  58.5905
11.447  54.1897
11.466  49.1397
11.485  43.6649
11.504  38.178
11.523  33.516
11.542  29.1317
11.561  25.3406
11.5799  20.7361
11.5989  18.1629
11.6179  15.938
11.6369  14.2141
11.6559  13.1566
11.6749  11.3124
11.6939  11.0632
11.7128  10.8227
11.7318  10.5635
11.7508  10.6542
11.7698  10.395
11.7888  9.7946
11.8078  8.55717
11.8268  6.90055
11.8457  5.32049
11.8647  3.47671
11.8837  2.08827
11.9027  0.998036
11.9217  -0.257005
11.9407  -1.06488
11.9597  -2.06105
11.9787  -1.53834
11.9976  -1.54171
12.0166  0.174043
12.0356  2.20404
12.0546  5.01605
12.0736  9.68952
12.0926  14.8494
12.1116  23.5435
12.1305  34.1022
12.1495  48.6038
12.1685  69.0328
12.1875  90.4271
12.2065  124.752
12.2255  159.081
12.2445  202.141
12.2634  256.929
12.2824  303.397
12.3014  346.716
12.3204  398.984
12.3394  404.249
12.3584  393.512
12.3774  358.147
12.3963  312.83
12.4153  245.564
12.4343  207.282
12.4533  168.188
12.4723  141.16
12.4913  119.606
12.5103  107.714
12.5293  99.185
12.5482  93.9345
12.5672  87.9313
12.5862  81.6671
12.6052  78.3923
12.6242  74.5875
12.6432  72.4099
12.6622  68.8797
12.6811  67.5349
12.7001  67.4712
12.7191  67.1411
12.7381  69.0197
12.7571  69.3711
12.7761  72.1074
12.7951  74.6693
12.814  77.4986
12.833  81.7698
12.852  83.6031
12.871  88.2305
12.89  90.3055
12.909  94.7882
12.928  98.1289
12.9469  101.165
12.9659  103.487
12.9849  103.184
13.0039  104.959
13.0229  104.645
13.0419  105.193
13.0609  104.447
13.0799  104.619
13.0988  104.41
13.1178  105.714
13.1368  105.574
13.1558  106.096
13.1748  106.139
13.1938  105.715
13.2128  106.236
13.2317  105.844
13.2507  106.533
13.2697  104.851
13.2887  103.199
13.3077  100.275
13.3267  97.4601
13.3457  93.7766
13.3646  89.577
13.3836  84.2049
13.4026  79.161
13.4216  74.2877
13.4406  69.3482
13.4596  64.611
13.4786  59.4094
13.4975  54.3199
13.5165  49.5158
13.5355  45.4435
13.5545  41.7863
13.5735  38.0251
13.5925  33.9313
13.6115  30.2691
13.6305  26.9027
13.6494  23.5875
13.6684  20.6369
13.6874  17.4756
13.7064  14.4003
13.7254  11.6579
13.7444  9.15582
13.7634  6.78037
13.7823  4.35149
13.8013  1.7985
13.8203  -0.326395
13.8393  -1.53294
13.8583  -2.2566
13.8773  -2.51948
13.8963  -2.6043
13.9152  -2.38535
13.9342  -1.61888
13.9532  -0.80333
13.9722  0.370692
13.9912  2.08543
14.0102  3.69562
14.0292  5.02809
14.0481  6.35171
14.0671  8.37583
14.0861  10.4682
14.1051  13.0665
14.1241  15.0681
14.1431  17.1601
14.1621  19.1488
14.1811  21.3202
14.2  22.7882
14.219  23.5676
14.238  23.3418
14.257  22.0559
14.276  20.2014
14.295  18.4015
14.314  16.7671
14.3329  14.821
14.3519  12.5964
14.3709  10.8866
14.3899  8.77872
14.4089  7.10152
14.4279  5.4781
14.4469  4.51715
14.4658  3.3203
14.4848  2.42236
14.5038  1.22966
14.5228  0.899904
14.5418  0.407036
14.5608  -0.166309
14.5798  -0.393565
14.5987  -0.583751
14.6177  -0.42558
14.6367  -0.795009
14.6557  -0.73696
14.6747  -0.44988
14.6937  0.0268803
14.7127  -0.0476917
14.7317  0.16087
14.7506  -0.125904
14.7696  -0.334085
14.7886  -0.492428
14.8076  -0.493905
14.8266  -0.56192
14.8456  -0.490597
14.8646  -0.420391
14.8835  -0.460852
14.9025  -0.705333
14.9215  -0.920304
14.9405  -0.527993
14.9595  0.198321
14.9785  0.401882
14.9975  0.504151
15.0164  0.114734
15.0354  0.0396814
15.0544  0.020025
15.0734  0.394333
15.0924  0.712934
15.1114  1.25585
15.1304  1.39983
15.1493  1.9932
15.1683  2.38861
15.1873  2.85738
15.2063  3.31269
15.2253  3.65087
15.2443  3.62305
15.2633  3.36257
15.2823  3.11872
15.3012  3.34943
15.3202  3.00084
15.3392  2.43422
15.3582  1.99168
15.3772  1.9952
15.3962  1.80562
15.4152  1.30685
15.4341  0.603602
15.4531  0.536847
15.4721  0.851286
15.4911  0.65775
15.5101  0.157602
15.5291  -0.265731
15.5481  -0.108703
15.567  0.113278
15.586  -0.181628
15.605  -0.407037
15.624  -0.234946
15.643  -0.194994
15.662  0.132169
15.681  -0.0395533
15.6999  -0.181821
15.7189  0.0182527
15.7379  0.154974
15.7569  0.421923
15.7759  0.684532
15.7949  1.05094
15.8139  1.02311
15.8329  0.651959
15.8518  0.4923
15.8708  0.790762
15.8898  1.60654
15.9088  1.99804
15.9278  2.25628
15.9468  2.26146
15.9658  2.08304
15.9847  2.41868
16.0037  2.96233
16.0227  3.6724
16.0417  4.24665
16.0607  4.97335
16.0797  5.52443
16.0987  5.87874
16.1176  6.1178
16.1366  6.57042
16.1556  7.10184
16.1746  7.35589
16.1936  7.84412
16.2126  8.53464
16.2316  9.33671
16.2505  10.0342
16.2695  10.4215
16.2885  10.4561
16.3075  10.9017
16.3265  11.7725
16.3455  12.5771
16.3645  12.4921
16.3834  12.3655
16.4024  12.6418
16.4214  13.0296
16.4404  13.0279
16.4594  13.3944
16.4784  14.0313
16.4974  14.2309
16.5164  13.9207
16.5353  13.8024
16.5543  13.9951
16.5733  14.1942
16.5923  15.1523
16.6113  17.0071
16.6303  19.0709
16.6493  21.3907
16.6682  23.8347
16.6872  27.4757
16.7062  32.1866
16.7252  37.124
16.7442  42.5674
16.7632  48.8527
16.7822  56.201
16.8011  65.1052
16.8201  72.9184
16.8391  78.1462
16.8581  79.1961
16.8771  74.0369
16.8961  64.5362
16.9151  52.6007
16.934  43.0951
16.953  33.918
16.972  27.1088
16.991  21.7068
17.01  17.1324
17.029  13.6693
17.048  10.7304
17.067  9.21376
17.0859  8.21542
17.1049  7.44775
17.1239  6.70573
17.1429  6.24458
17.1619  5.72634
17.1809  4.82487
17.1999  3.72424
17.2188  2.76903
17.2378  2.25527
17.2568  1.67771
17.2758  1.10265
17.2948  0.593823
17.3138  -0.0515023
17.3328  -0.386235
17.3517  -0.691972
17.3707  -0.59203
17.3897  -0.421366
17.4087  -0.251097
17.4277  -0.257806
17.4467  -0.415866
17.4657  -0.748138
17.4846  -0.794862
17.5036  -0.722283
17.5226  -0.419073
17.5416  -0.0692508
17.5606  0.224597
17.5796  0.261998
17.5986  0.103889
17.6176  0.197522
17.6365  0.72775
17.6555  0.888252
17.6745  1.38186
17.6935  1.90006
17.7125  2.70794
17.7315  3.38188
17.7505  3.72532
17.7694  4.15304
17.7884  4.69925
17.8074  5.5388
17.8264  6.13347
17.8454  6.63258
17.8644  6.71496
17.8834  6.64426
17.9023  6.90986
17.9213  7.53149
17.9403  8.28835
17.9593  9.62814
17.9783  11.2808
17.9973  13.5679
18.0163  16.1638
18.0352  19.3806
18.0542  22.9074
18.0732  27.2362
18.0922  31.9992
18.1112  37.5628
18.1302  43.6906
18.1492  50.6683
18.1682  58.9481
18.1871  67.6991
18.2061  76.9848
18.2251  85.2287
18.2441  92.0433
18.2631  97.015
18.2821  99.4534
18.3011  99.9737
18.32  97.671
18.339  92.9826
18.358  86.3353
18.377  78.3684
18.396  69.7827
18.415  61.0491
18.434  53.2142
18.4529  46.9071
18.4719  41.2137
18.4909  36.5724
18.5099  32.9949
18.5289  30.201
18.5479  27.8621
18.5669  25.8678
18.5858  24.1961
18.6048  22.8197
18.6238  21.2356
18.6428  19.983
18.6618  18.2578
18.6808  16.5284
18.6998  14.9462
18.7188  13.9907
18.7377  12.4223
18.7567  10.8166
18.7757  9.91272
18.7947  9.37268
18.8137  9.24911
18.8327  8.79726
18.8517  8.29633
18.8706  7.80004
18.8896  7.64486
18.9086  7.79448
18.9276  8.15441
18.9466  8.35584
18.9656  8.89719
18.9846  9.39998
19.0035  9.86784
19.0225  10.4064
19.0415  11.031
19.0605  11.9135
19.0795  12.2448
19.0985  12.622
19.1175  13.1979
19.1364  14.2162
19.1554  14.9749
19.1744  16.387
19.1934  17.3914
19.2124  19.0326
19.2314  20.9522
19.2504  23.7858
19.2694  26.0786
19.2883  28.4481
19.3073  30.1851
19.3263  30.9575
19.3453  30.5852
19.3643  29.6619
19.3833  28.6275
19.4023  26.523
19.4212  23.5417
19.4402  20.4678
19.4592  17.5124
19.4782  15.0843
19.4972  12.3267
19.5162  9.93733
19.5352  7.68555
19.5541  6.17404
19.5731  4.76429
19.5921  3.21558
19.6111  2.36359
19.6301  1.61609
19.6491  1.001
19.6681  0.379116
19.687  0.404438
19.706  0.422882
19.725  1.27411
19.744  2.20458
19.763  3.09592
19.782  4.16072
19.801  5.875
19.82  7.96514
19.8389  10.2606
19.8579  12.8781
19.8769  16.3509
19.8959  20.1885
19.9149  24.6025
19.9339  29.4198
19.9529  34.7837
19.9718  39.8826
19.9908  44.6003
20.0098  47.8958
20.0288  50.367
20.0478  51.9245
20.0668  53.0948
20.0858  53.2771
20.1047  52.5421
20.1237  50.8691
20.1427  48.9438
20.1617  46.8813
20.1807  45.0139
20.1997  43.0654
20.2187  40.8469
20.2376  38.6345
20.2566  36.9849
20.2756  35.8024
20.2946  35.2273
20.3136  34.8051
20.3326  34.3999
20.3516  34.0323
20.3706  33.429
20.3895  32.9193
20.4085  32.7242
20.4275  32.4692
20.4465  32.4058
20.4655  32.1712
20.4845  32.4974
20.5035  32.0814
20.5224  31.2907
20.5414  30.8627
20.5604  30.2835
20.5794  28.9141
20.5984  27.0431
20.6174  25.6745
20.6364  24.4107
20.6553  22.7966
20.6743  20.9957
20.6933  19.1922
20.7123  18.2305
20.7313  17.2773
20.7503  16.4994
20.7693  16.0331
20.7882  15.2091
20.8072  14.594
20.8262  13.8562
20.8452  13.5902
20.8642  13.099
20.8832  12.6878
20.9022  12.5441
20.9212  12.6477
20.9401  12.2745
20.9591  12.0243
20.9781  11.9785
20.9971  11.8447
21.0161  11.234
21.0351  10.644
21.0541  10.3697
21.073  9.96205
21.092  10.0548
21.111  9.92081
21.13  9.53382
21.149  8.85032
21.168  8.33023
21.187  7.94825
21.2059  7.79376
21.2249  7.38794
21.2439  7.11622
21.2629  6.79895
21.2819  6.98822
21.3009  6.80376
21.3199  6.68225
21.3388  6.42951
21.3578  6.06518
21.3768  5.28831
21.3958  5.03992
21.4148  4.83314
21.4338  4.54483
21.4528  3.88896
21.4717  3.56562
21.4907  3.40818
21.5097  3.29111
21.5287  2.8115
21.5477  2.39036
21.5667  1.80709
21.5857  1.46363
21.6047  1.40648
21.6236  1.48266
21.6426  1.44038
21.6616  1.17137
21.6806  0.893112
21.6996  0.445597
21.7186  0.438813
21.7376  0.508676
21.7565  0.501483
21.7755  0.466066
21.7945  0.440748
21.8135  -0.0936799
21.8325  -0.636017
21.8515  -0.964769
21.8705  -1.03535
21.8894  -0.876421
21.9084  -0.668846
21.9274  -0.611011
21.9464  -0.382816
21.9654  0.0297129
21.9844  0.303755
22.0034  0.583933
22.0223  1.21554
22.0413  2.06269
22.0603  3.15317
22.0793  4.36464
22.0983  6.30216
22.1173  8.35557
22.1363  10.6794
22.1553  12.8101
22.1742  14.4601
22.1932  15.3892
22.2122  15.3132
22.2312  15.0051
22.2502  14.188
22.2692  13.0625
22.2882  11.3903
22.3071  9.26796
22.3261  7.32751
22.3451  5.64818
22.3641  4.02648
22.3831  2.81468
22.4021  2.0811
22.4211  1.53163
22.44  1.18493
22.459  0.807767
22.478  0.617361
22.497  0.420455
22.516  0.202146
22.535  -0.182145
22.554  -0.419689
22.5729  -0.234719
22.5919  -0.111466
22.6109  -0.0571268
22.6299  -0.156083
22.6489  -0.208003
22.6679  0.0167166
22.6869  0.33568
22.7059  0.384181
22.7248  0.354923
22.7438  0.108038
22.7628  0.145771
22.7818  0.151073
22.8008  0.269326
22.8198  0.124072
22.8388  0.0970322
22.8577  0.416119
22.8767  0.47487
22.8957  0.274295
22.9147  0.00654124
22.9337  0.114183
22.9527  0.0433886
22.9717  0.0729247
22.9906  0.104215
23.0096  0.356357
23.0286  0.479927
23.0476  0.430172
23.0666  0.282784
23.0856  -0.0801438
23.1046  -0.223376
23.1235  -0.0958668
23.1425  -0.0366905
23.1615  0.0373082
23.1805  0.0253161
23.1995  -0.126925
23.2185  -0.0451212
23.2375  0.0571253
23.2565  0.203781
23.2754  0.129293
23.2944  0.232497
23.3134  0.142968
23.3324  0.0557869
23.3514  0.154609
23.3704  0.374068
23.3894  0.301071
23.4083  0.0421532
23.4273  -0.0400004
23.4463  0.0918141
23.4653  0.110898
23.4843  0.204835
23.5033  0.369172
23.5223  0.489783
23.5412  0.273253
23.5602  0.383229
23.5792  0.348905
23.5982  0.10266
23.6172  -0.0926051
23.6362  -0.141134
23.6552  0.0983875
23.6741  0.250832
23.6931  0.367955
23.7121  0.55584
23.7311  0.679298
23.7501  0.737673
23.7691  0.584867
23.7881  0.330965
23.8071  0.155978
23.826  -0.0423146
23.845  0.0548508
23.864  0.356376
23.883  0.28007
23.902  0.053097
23.921  0.147325
23.94  0.428943
23.9589  0.353592
23.9779  0.0134241
23.9969  -0.141528
24.0159  -0.056369
24.0349  -0.0528262
24.0539  -0.119038
24.0729  0.027221
24.0918  0.148228
24.1108  0.0324026
24.1298  0.0310973
24.1488  -0.00573978
24.1678  0.0572771
24.1868  0.0330794
24.2058  -0.0444037
24.2247  -0.159841
24.2437  0.102014