File: data/processed/Run1_XRD/16_ReMoB2_74p0GPa_645psi_P1_C4_D1w_114.dat
2.82731  0.248826
2.84629  -0.0163786
2.86528  0.168945
2.88427  0.352635
2.90325  0.498632
2.92224  0.754497
2.94122  0.484788
2.96021  0.222584
2.9792  0.337855
2.99818  0.39804
3.01717  1.21338
3.03616  1.25606
3.05514  1.75659
3.07413  1.60678
3.09311  1.28164
3.1121  0.760738
3.13109  0.814121
3.15007  0.456695
3.16906  0.374689
3.18805  0.284867
3.20703  1.138
3.22602  0.971126
3.245  0.751263
3.26399  0.69433
3.28298  1.46541
3.30196  1.65252
3.32095  1.96251
3.33993  2.64371
3.35892  3.36203
3.37791  3.71708
3.39689  3.65771
3.41588  3.63165
3.43487  4.71381
3.45385  6.69116
3.47284  10.6931
3.49182  16.2015
3.51081  24.6149
3.5298  34.2067
3.54878  43.79
3.56777  46.5907
3.58676  42.078
3.60574  31.1489
3.62473  20.4969
3.64371  12.6558
3.6627  7.96699
3.68169  5.27173
3.70067  4.28425
3.71966  3.39198
3.73864  1.96696
3.75763  1.38554
3.77662  1.05214
3.7956  1.54479
3.81459  1.70029
3.83358  1.44515
3.85256  1.31108
3.87155  1.45039
3.89053  1.30601
3.90952  0.994118
3.92851  0.863695
3.94749  1.09558
3.96648  1.38548
3.98547  1.53865
4.00445  1.52337
4.02344  1.22497
4.04242  1.01881
4.06141  1.08413
4.0804  1.1272
4.09938  1.26872
4.11837  1.11997
4.13735  1.32025
4.15634  1.04467
4.17533  0.526581
4.19431  0.400808
4.2133  0.47004
4.23229  0.813933
4.25127  0.552303
4.27026  0.259636
4.28924  -0.141131
4.30823  0.0409315
4.32722  0.251322
4.3462  0.128906
4.36519  0.59746
4.38418  0.675852
4.40316  0.854069
4.42215  0.486075
4.44113  0.311968
4.46012  0.0853532
4.47911  -0.117637
4.49809  -0.0572871
4.51708  -0.0484231
4.53606  0.616558
4.55505  0.800316
4.57404  1.41944
4.59302  1.55484
4.61201  1.68529
4.631  1.2158
4.64998  0.702603
4.66897  0.553754
4.68795  0.185008
4.70694  0.326077
4.72593  0.740501
4.74491  0.946
4.7639  1.28606
4.78289  0.622366
4.80187  0.344245
4.82086  -0.0613005
4.83984  0.167012
4.85883  0.374802
4.87782  0.643875
4.8968  0.769975
4.91579  1.04552
4.93478  1.33455
4.95376  0.969363
4.97275  1.07403
4.99173  1.03947
5.01072  1.02389
5.02971  1.05061
5.04869  1.34511
5.06768  1.22244
5.08666  1.43175
5.10565  1.02
5.12464  0.339175
5.14362  -0.120631
5.16261  0.0711437
5.1816  0.272217
5.20058  0.298492
5.21957  0.324776
5.23855  0.749066
5.25754  1.42251
5.27653  1.19196
5.29551  1.80655
5.3145  1.57153
5.33349  1.50846
5.35247  0.825437
5.37146  0.30956
5.39044  0.727197
5.40943  0.620715
5.42842  0.43093
5.4474  0.153924
5.46639  -0.117576
5.48537  -0.112869
5.50436  0.127204
5.52335  0.483039
5.54233  0.772252
5.56132  0.853306
5.58031  1.10113
5.59929  1.36749
5.61828  1.70276
5.63726  1.3675
5.65625  0.927354
5.67524  0.807035
5.69422  0.445325
5.71321  0.055819
5.7322  0.395171
5.75118  1.23795
5.77017  0.723206
5.78915  0.603132
5.80814  0.0186431
5.82713  0.789065
5.84611  1.5259
5.8651  1.6614
5.88408  1.24922
5.90307  0.717788
5.92206  0.450109
5.94104  0.302893
5.96003  0.187372
5.97902  0.746138
5.998  1.20843
6.01699  1.60306
6.03597  1.13559
6.05496  0.825642
6.07395  0.44955
6.09293  0.152625
6.11192  -0.0945477
6.13091  0.152943
6.14989  0.463592
6.16888  0.499444
6.18786  0.43951
6.20685  0.0669921
6.22584  -0.0225528
6.24482  -0.455006
6.26381  -0.333558
6.28279  -0.177046
6.30178  0.371324
6.32077  1.33684
6.33975  1.5611
6.35874  1.59651
6.37773  1.21875
6.39671  1.19446
6.4157  1.1959
6.43468  1.03719
6.45367  1.91865
6.47266  2.96143
6.49164  4.21529
6.51063  4.98323
6.52962  4.19135
6.5486  3.78889
6.56759  3.14645
6.58657  3.04847
6.60556  2.78046
6.62455  2.56644
6.64353  3.45682
6.66252  4.08432
6.6815  5.08457
6.70049  5.9559
6.71948  7.47626
6.73846  9.64416
6.75745  13.0598
6.77644  17.8887
6.79542  23.8699
6.81441  30.4512
6.83339  37.1232
6.85238  42.5354
6.87137  46.6971
6.89035  48.5652
6.90934  48.0219
6.92833  46.3935
6.94731  44.769
6.9663  45.9187
6.98528  51.6575
7.00427  63.8595
7.02326  85.4679
7.04224  114.711
7.06123  155.539
7.08021  200.02
7.0992  235.362
7.11819  257.172
7.13717  255.705
7.15616  238.767
7.17515  204.464
7.19413  164.047
7.21312  126.149
7.2321  93.6383
7.25109  68.2599
7.27008  49.156
7.28906  35.8456
7.30805  27.2041
7.32704  21.7352
7.34602  17.9737
7.36501  14.6089
7.38399  11.7521
7.40298  9.55873
7.42197  8.28776
7.44095  6.81679
7.45994  5.82449
7.47892  5.3606
7.49791  5.29425
7.5169  4.88583
7.53588  4.15227
7.55487  3.07191
7.57386  1.9031
7.59284  1.33909
7.61183  1.29079
7.63081  1.42699
7.6498  1.1224
7.66879  0.953366
7.68777  0.83947
7.70676  0.675247
7.72575  0.413225
7.74473  0.613539
7.76372  0.759418
7.7827  0.138268
7.80169  -0.214454
7.82068  -0.301197
7.83966  0.125814
7.85865  0.571056
7.87764  0.707994
7.89662  0.600681
7.91561  0.478944
7.93459  0.443915
7.95358  0.191628
7.97257  0.0582445
7.99155  0.00182506
8.01054  -0.104915
8.02952  0.0172252
8.04851  0.0147754
8.0675  0.403652
8.08648  0.653031
8.10547  0.404865
8.12446  -0.0490906
8.14344  -0.199033
8.16243  -0.0553829
8.18141  -0.177361
8.2004  -0.133149
8.21939  0.0930278
8.23837  0.37931
8.25736  0.535302
8.27635  0.243252
8.29533  0.196956
8.31432  0.271579
8.3333  0.729517
8.35229  0.490924
8.37128  0.439627
8.39026  0.558846
8.40925  0.704559
8.42823  0.718487
8.44722  0.897982
8.46621  1.36468
8.48519  1.0707
8.50418  0.68157
8.52317  0.886651
8.54215  0.518896
8.56114  0.430093
8.58012  0.0691951
8.59911  0.146527
8.6181  -0.127422
8.63708  -0.105791
8.65607  -0.418885
8.67506  -0.023483
8.69404  -0.17966
8.71303  -0.387073
8.73201  -0.650808
8.751  -0.816965
8.76999  -0.926203
8.78897  -0.925203
8.80796  -1.08568
8.82694  -0.958968
8.84593  -0.856418
8.86492  -0.614952
8.8839  -0.518764
8.90289  -0.48909
8.92188  -0.217373
8.94086  0.469319
8.95985  1.12488
8.97883  1.96208
8.99782  2.97139
9.01681  4.28922
9.03579  5.86769
9.05478  6.89651
9.07377  8.30447
9.09275  9.41472
9.11174  11.0954
9.13072  13.1019
9.14971  15.3916
9.1687  18.347
9.18768  22.654
9.20667  29.1104
9.22565  39.4635
9.24464  55.9412
9.26363  83.8795
9.28261  129.131
9.3016  200.313
9.32059  295.118
9.33957  416.349
9.35856  542.094
9.37754  663.009
9.39653  759.08
9.41552  813.497
9.4345  829.81
9.45349  805.63
9.47248  766.107
9.49146  716.128
9.51045  655.173
9.52943  599.221
9.54842  555.708
9.56741  540.709
9.58639  556.165
9.60538  616.715
9.62436  684.245
9.64335  752.858
9.66234  793.433
9.68132  823.745
9.70031  852.922
9.7193  882.805
9.73828  893.046
9.75727  861.896
9.77625  790.849
9.79524  708.028
9.81423  614.391
9.83321  523.935
9.8522  440.026
9.87119  372.786
9.89017  314.757
9.90916  266.541
9.92814  225.214
9.94713  192.011
9.96612  164.482
9.9851  143.036
10.0041  123.031
10.0231  106.221
10.0421  90.7761
10.061  77.2179
10.08  64.1331
10.099  52.5133
10.118  41.1477
10.137  32.083
10.156  24.6305
10.175  18.086
10.194  13.5874
10.2129  9.66198
10.2319  6.6146
10.2509  3.92176
10.2699  1.87318
10.2889  1.07166
10.3079  0.556045
10.3269  0.0677809
10.3458  -0.503155
10.3648  -1.38503
10.3838  -1.8779
10.4028  -2.22351
10.4218  -1.83164
10.4408  -1.59965
10.4598  -0.987329
10.4787  -1.27506
10.4977  -1.77891
10.5167  -2.30339
10.5357  -2.50552
10.5547  -2.10472
10.5737  -1.11298
10.5927  0.137852
10.6116  1.66975
10.6306  3.14901
10.6496  4.78983
10.6686  6.56948
10.6876  8.0107
10.7066  9.00896
10.7256  9.85892
10.7446  9.93824
10.7635  10.5398
10.7825  10.5623
10.8015  10.7578
10.8205  11.1979
10.8395  12.31
10.8585  13.4265
10.8775  14.8296
10.8964  16.2474
10.9154  17.9433
10.9344  20.1297
10.9534  22.7715
10.9724  25.7974
10.9914  28.3038
11.0104  31.3692
11.0293  34.0053
11.0483  37.2762
11.0673  40.6907
11.0863  45.0806
11.1053  49.039
11.1243  52.6855
11.1433  55.9824
11.1622  58.869
11.1812  61.3008
11.2002  62.7771
11.2192  62.5334
11.2382  61.8869
11.2572  61.4462
11.2762  60.4559
11.2951  58.4658
11.3141  55.7773
11.3331  52.5686
11.3521  49.4673
11.3711  46.2079
11.3901  43.0874
11.4091  39.8919
11.4281  36.5973
11.447  33.6281
11.466  30.1069
11.485  27.3275
11.504  24.2888
11.523  23.9462
11.542  22.0168
11.561  19.382
11.5799  16.6942
11.5989  14.1445
11.6179  12.2115
11.6369  10.4406
11.6559  9.33534
11.6749  7.86076
11.6939  6.76077
11.7128  5.63971
11.7318  4.55995
11.7508  4.11211
11.7698  3.63748
11.7888  3.47111
11.8078  3.0048
11.8268  3.03325
11.8457  2.84702
11.8647  2.128
11.8837  1.59788
11.9027  0.867777
11.9217  0.746687
11.9407  0.496303
11.9597  0.730917
11.9787  1.41117
11.9976  2.48057
12.0166  4.44503
12.0356  6.96168
12.0546  11.7003
12.0736  17.9722
12.0926  26.6938
12.1116  39.7335
12.1305  57.7165
12.1495  81.8616
12.1685  113.718
12.1875  153.244
12.2065  202.191
12.2255  257.055
12.2445  321.142
12.2634  383.379
12.2824  443.357
12.3014  485.302
12.3204  518.454
12.3394  519.031
12.3584  504.712
12.3774  465.168
12.3963  419.439
12.4153  363.639
12.4343  313.254
12.4533  265.47
12.4723  218.647
12.4913  176.067
12.5103  141.715
12.5293  114.858
12.5482  97.0153
12.5672  82.3468
12.5862  72.2163
12.6052  65.305
12.6242  59.761
12.6432  55.1457
12.6622  50.6491
12.6811  47.9475
12.7001  46.2151
12.7191  44.7773
12.7381  43.6105
12.7571  42.8707
12.7761  42.668
12.7951  43.0629
12.814  43.2156
12.833  43.9108
12.852  44.5033
12.871  46.2341
12.89  47.415
12.909  49.0536
12.928  50.6932
12.9469  51.6633
12.9659  52.972
12.9849  53.7588
13.0039  54.7976
13.0229  55.6048
13.0419  55.9429
13.0609  55.5656
13.0799  55.1091
13.0988  55.3728
13.1178  55.6475
13.1368  56.2286
13.1558  56.3312
13.1748  56.7393
13.1938  57.2556
13.2128  58.2128
13.2317  59.9594
13.2507  60.9517
13.2697  61.6458
13.2887  62.4907
13.3077  62.2312
13.3267  61.8075
13.3457  60.195
13.3646  59.0949
13.3836  56.6626
13.4026  53.1646
13.4216  48.7095
13.4406  44.4246
13.4596  40.6253
13.4786  36.7657
13.4975  32.628
13.5165  29.0306
13.5355  25.3453
13.5545  22.1843
13.5735  18.9288
13.5925  15.824
13.6115  13.2353
13.6305  11.2676
13.6494  10.1543
13.6684  8.85025
13.6874  6.78699
13.7064  5.10825
13.7254  3.66051
13.7444  2.41264
13.7634  0.982438
13.7823  0.0196585
13.8013  -0.858943
13.8203  -1.51575
13.8393  -2.07517
13.8583  -2.28569
13.8773  -2.2521
13.8963  -2.28952
13.9152  -2.08424
13.9342  -1.59326
13.9532  -1.27825
13.9722  -0.53372
13.9912  0.314286
14.0102  1.63536
14.0292  2.99354
14.0481  4.66346
14.0671  6.17574
14.0861  7.46603
14.1051  9.43854
14.1241  11.3081
14.1431  13.8507
14.1621  16.0633
14.1811  18.2549
14.2  19.8151
14.219  21.2778
14.238  22.1318
14.257  22.1249
14.276  21.9989
14.295  21.7932
14.314  21.6485
14.3329  20.6461
14.3519  19.4187
14.3709  17.6866
14.3899  15.2685
14.4089  12.9797
14.4279  10.9432
14.4469  9.42639
14.4658  7.83689
14.4848  6.2951
14.5038  5.09302
14.5228  3.87948
14.5418  3.05697
14.5608  2.67738
14.5798  1.91077
14.5987  1.68211
14.6177  1.1231
14.6367  0.742679
14.6557  -0.280653
14.6747  -0.391098
14.6937  -0.278968
14.7127  0.13733
14.7317  0.399513
14.7506  0.272786
14.7696  -0.20592
14.7886  -0.53688
14.8076  -0.47848
14.8266  -0.705061
14.8456  -0.813031
14.8646  -0.933696
14.8835  -1.00371
14.9025  -0.925884
14.9215  -0.716553
14.9405  -0.342388
14.9595  -0.218288
14.9785  -0.282286
14.9975  -0.273828
15.0164  0.053767
15.0354  0.0744515
15.0544  0.396777
15.0734  0.260978
15.0924  0.333109
15.1114  0.096349
15.1304  -0.144288
15.1493  -0.00154645
15.1683  0.196253
15.1873  1.01768
15.2063  1.36343
15.2253  1.22454
15.2443  0.944765
15.2633  0.821034
15.2823  0.821693
15.3012  0.896596
15.3202  0.956216
15.3392  1.08946
15.3582  1.30275
15.3772  1.23346
15.3962  0.972066
15.4152  0.641185
15.4341  0.381108
15.4531  0.859414
15.4721  0.570636
15.4911  0.380224
15.5101  0.0935863
15.5291  0.0909522
15.5481  0.154945
15.567  0.187122
15.586  0.0754964
15.605  -0.00776181
15.624  -0.240725
15.643  -0.334693
15.662  0.0396345
15.681  0.286347
15.6999  0.764227
15.7189  0.766971
15.7379  0.798553
15.7569  0.77125
15.7759  0.514237
15.7949  0.392802
15.8139  0.335734
15.8329  0.281036
15.8518  0.154101
15.8708  0.348582
15.8898  0.915183
15.9088  1.68778
15.9278  2.3843
15.9468  2.58712
15.9658  2.77209
15.9847  2.86543
16.0037  3.44512
16.0227  3.86469
16.0417  4.20941
16.0607  4.51553
16.0797  5.60036
16.0987  6.48665
16.1176  7.14819
16.1366  7.8008
16.1556  8.6203
16.1746  9.68707
16.1936  10.3438
16.2126  11.1943
16.2316  12.1872
16.2505  12.9963
16.2695  13.2172
16.2885  14.0397
16.3075  14.7986
16.3265  15.4339
16.3455  15.9183
16.3645  16.3534
16.3834  16.5178
16.4024  16.5847
16.4214  16.4963
16.4404  16.5749
16.4594  16.8252
16.4784  16.7284
16.4974  16.4888
16.5164  15.9977
16.5353  15.6696
16.5543  15.0613
16.5733  14.5411
16.5923  14.3179
16.6113  14.6299
16.6303  14.7264
16.6493  15.026
16.6682  15.8992
16.6872  17.6415
16.7062  19.649
16.7252  22.0879
16.7442  25.1154
16.7632  28.7828
16.7822  32.4499
16.8011  36.7207
16.8201  40.913
16.8391  44.9093
16.8581  47.6348
16.8771  48.3366
16.8961  47.3866
16.9151  44.0296
16.934  38.5611
16.953  31.993
16.972  26.1492
16.991  20.7112
17.01  16.223
17.029  13.2243
17.048  11.0933
17.067  9.74882
17.0859  8.2741
17.1049  7.08145
17.1239  6.11097
17.1429  5.42577
17.1619  5.11454
17.1809  4.82084
17.1999  4.44115
17.2188  4.09611
17.2378  3.61875
17.2568  2.96461
17.2758  2.02637
17.2948  1.42039
17.3138  1.12473
17.3328  0.929028
17.3517  0.427319
17.3707  -0.383585
17.3897  -0.54361
17.4087  -0.737235
17.4277  -0.553453
17.4467  -0.76269
17.4657  -1.09758
17.4846  -0.951075
17.5036  -0.764819
17.5226  -0.0393189
17.5416  0.175765
17.5606  -0.0731936
17.5796  -0.613588
17.5986  -0.628315
17.6176  -0.142033
17.6365  0.140024
17.6555  0.634025
17.6745  0.892342
17.6935  1.021
17.7125  0.982827
17.7315  1.55183
17.7505  2.20794
17.7694  2.87788
17.7884  3.75435
17.8074  4.58643
17.8264  5.43463
17.8454  6.22546
17.8644  6.66669
17.8834  7.10756
17.9023  7.26992
17.9213  7.96362
17.9403  8.71031
17.9593  10.0897
17.9783  11.6777
17.9973  14.1238
18.0163  16.8471
18.0352  20.1107
18.0542  23.4965
18.0732  27.662
18.0922  32.4137
18.1112  37.7613
18.1302  42.401
18.1492  47.7442
18.1682  53.5114
18.1871  59.6256
18.2061  66.0118
18.2251  73.5409
18.2441  82.0649
18.2631  91.1914
18.2821  99.7842
18.3011  106.74
18.32  111.388
18.339  112.934
18.358  111.96
18.377  106.658
18.396  99.1516
18.415  90.12
18.434  80.8506
18.4529  70.7761
18.4719  62.0159
18.4909  55.0591
18.5099  49.531
18.5289  44.6404
18.5479  40.7035
18.5669  37.8543
18.5858  35.4759
18.6048  33.53
18.6238  31.6447
18.6428  30.3123
18.6618  29.1075
18.6808  28.0302
18.6998  25.7963
18.7188  22.7229
18.7377  19.3311
18.7567  16.9533
18.7757  14.7606
18.7947  13.3617
18.8137  11.843
18.8327  10.6637
18.8517  9.47023
18.8706  8.73742
18.8896  8.44478
18.9086  7.87929
18.9276  7.73017
18.9466  7.36927
18.9656  7.99589
18.9846  8.39681
19.0035  8.81254
19.0225  8.93245
19.0415  9.11512
19.0605  9.64149
19.0795  10.0051
19.0985  10.5241
19.1175  10.9121
19.1364  10.8199
19.1554  10.8162
19.1744  11.0532
19.1934  11.2783
19.2124  11.4101
19.2314  12.0908
19.2504  12.7235
19.2694  13.5297
19.2883  14.0809
19.3073  14.8176
19.3263  15.7252
19.3453  16.7042
19.3643  17.7764
19.3833  18.337
19.4023  18.0942
19.4212  17.4741
19.4402  17.0533
19.4592  16.2463
19.4782  14.7258
19.4972  12.441
19.5162  10.3764
19.5352  8.45949
19.5541  6.7324
19.5731  5.09995
19.5921  3.75037
19.6111  3.20987
19.6301  2.41295
19.6491  1.77384
19.6681  0.949694
19.687  0.592331
19.706  0.443768
19.725  0.64754
19.744  1.07429
19.763  1.43553
19.782  1.80863
19.801  2.7095
19.82  3.78141
19.8389  5.71582
19.8579  7.34908
19.8769  9.175
19.8959  11.135
19.9149  13.6569
19.9339  16.4549
19.9529  20.0852
19.9718  23.9179
19.9908  28.1015
20.0098  31.4443
20.0288  34.7104
20.0478  37.5355
20.0668  39.8558
20.0858  41.8585
20.1047  43.5306
20.1237  44.2386
20.1427  43.7481
20.1617  43.0317
20.1807  41.8582
20.1997  40.1154
20.2187  37.6862
20.2376  35.3596
20.2566  33.3427
20.2756  32.4755
20.2946  31.333
20.3136  30.9337
20.3326  30.1769
20.3516  30.0537
20.3706  29.5684
20.3895  29.7104
20.4085  29.2957
20.4275  28.8927
20.4465  28.5326
20.4655  28.7969
20.4845  29.0837
20.5035  29.0907
20.5224  29.0559
20.5414  28.9632
20.5604  29.073
20.5794  29.241
20.5984  29.0094
20.6174  28.6247
20.6364  28.1274
20.6553  27.4521
20.6743  26.2188
20.6933  24.9988
20.7123  24.0874
20.7313  23.2739
20.7503  22.3699
20.7693  21.5836
20.7882  20.6761
20.8072  19.9322
20.8262  19.4159
20.8452  19.0392
20.8642  18.5687
20.8832  18.184
20.9022  17.4329
20.9212  16.7617
20.9401  15.8762
20.9591  15.3289
20.9781  14.6046
20.9971  13.7079
21.0161  13.0407
21.0351  12.2946
21.0541  11.3781
21.073  10.9118
21.092  10.5238
21.111  10.2055
21.13  9.80276
21.149  9.62637
21.168  9.14396
21.187  8.59121
21.2059  8.008
21.2249  7.11226
21.2439  6.61467
21.2629  6.01258
21.2819  5.59752
21.3009  5.30598
21.3199  5.2462
21.3388  4.94147
21.3578  4.34992
21.3768  3.76527
21.3958  3.62017
21.4148  3.13582
21.4338  2.91675
21.4528  2.58715
21.4717  2.31866
21.4907  1.75064
21.5097  1.57729
21.5287  1.27399
21.5477  0.958566
21.5667  0.894276
21.5857  0.965863
21.6047  0.64848
21.6236  0.360287
21.6426  0.363877
21.6616  0.59868
21.6806  0.764003
21.6996  0.69084
21.7186  0.78477
21.7376  0.585347
21.7565  0.403132
21.7755  0.343815
21.7945  0.489953
21.8135  0.125232
21.8325  -0.395824
21.8515  -0.870643
21.8705  -1.07214
21.8894  -1.134
21.9084  -0.673263
21.9274  -0.464854
21.9464  -0.522414
21.9654  -0.50624
21.9844  -0.242728
22.0034  0.147359
22.0223  0.742424
22.0413  1.26775
22.0603  1.84137
22.0793  2.40622
22.0983  3.33584
22.1173  4.87745
22.1363  6.83136
22.1553  8.94639
22.1742  11.2021
22.1932  13.3209
22.2122  15.0554
22.2312  16.0443
22.2502  16.5516
22.2692  16.2562
22.2882  15.1528
22.3071  13.1796
22.3261  11.0274
22.3451  8.76443
22.3641  6.57891
22.3831  4.91318
22.4021  3.68742
22.4211  2.81753
22.44  2.19069
22.459  1.99827
22.478  1.85673
22.497  1.63013
22.516  1.34248
22.535  1.24088
22.554  1.38567
22.5729  1.27923
22.5919  0.77902
22.6109  0.261175
22.6299  -0.010971
22.6489  -0.050814
22.6679  0.019083
22.6869  -0.0669023
22.7059  0.0931631
22.7248  -0.127881
22.7438  -0.0380065
22.7628  0.163302
22.7818  0.500629
22.8008  0.887011
22.8198  0.731989
22.8388  0.522093
22.8577  0.387966
22.8767  0.594628
22.8957  0.756371
22.9147  0.732026
22.9337  0.443068
22.9527  0.292836
22.9717  0.192267
22.9906  -0.102537
23.0096  -0.12823
23.0286  -0.051869
23.0476  0.222263
23.0666  0.418279
23.0856  0.403241
23.1046  0.0763551
23.1235  0.0313468
23.1425  0.00845844
23.1615  0.257602
23.1805  0.205484
23.1995  0.269887
23.2185  0.21997
23.2375  0.304396
23.2565  0.0252557
23.2754  -0.176688
23.2944  -0.266944
23.3134  -0.164712
23.3324  0.15224
23.3514  0.370924
23.3704  0.480022
23.3894  0.503976
23.4083  0.591361
23.4273  0.573296
23.4463  0.393269
23.4653  0.293264
23.4843  0.205561
23.5033  0.200799
23.5223  0.260655
23.5412  0.475904
23.5602  0.384731
23.5792  0.152028
23.5982  -0.0320127
23.6172  0.0118278
23.6362  0.0941254
23.6552  0.032882
23.6741  0.0510431
23.6931  0.139924
23.7121  0.163354
23.7311  0.0907753
23.7501  0.0800728
23.7691  0.230053
23.7881  0.162171
23.8071  0.152885
23.826  0.168972
23.845  0.0459897
23.864  0.0147682
23.883  0.243836
23.902  0.389462
23.921  0.5121
23.94  0.320813
23.9589  0.286776
23.9779  0.0493036
23.9969  0.100956
24.0159  0.0562252
24.0349  0.135916
24.0539  -0.0303047
24.0729  -0.125489
24.0918  -0.22635
24.1108  -0.0511076
24.1298  0.18023
24.1488  0.397667
24.1678  0.201071
24.1868  0.0121617
24.2058  -0.30541
24.2247  -0.298669
24.2437  0.247863