File: data/processed/Run1_XRD/17_ReMoB2_78p0GPa_670psi_P1_C4_D1w_120.dat
2.82731  0.255493
2.84629  0.062591
2.86528  0.030213
2.88427  0.120949
2.90325  0.535867
2.92224  0.626029
2.94122  1.4302
2.96021  2.1797
2.9792  2.08097
2.99818  1.10551
3.01717  0.0689423
3.03616  0.15661
3.05514  0.165671
3.07413  0.555434
3.09311  1.55263
3.1121  1.99256
3.13109  2.46309
3.15007  1.85194
3.16906  2.2074
3.18805  1.57166
3.20703  1.18455
3.22602  0.794496
3.245  0.665437
3.26399  0.914443
3.28298  0.685888
3.30196  0.865261
3.32095  0.46947
3.33993  1.2168
3.35892  2.13602
3.37791  2.98085
3.39689  3.28315
3.41588  4.61393
3.43487  5.61587
3.45385  6.4673
3.47284  8.51163
3.49182  12.4307
3.51081  18.3662
3.5298  26.1686
3.54878  34.1077
3.56777  39.7394
3.58676  38.7735
3.60574  31.7274
3.62473  21.5546
3.64371  14.5404
3.6627  8.45961
3.68169  5.09963
3.70067  3.21696
3.71966  2.13736
3.73864  2.0387
3.75763  2.10697
3.77662  2.04944
3.7956  1.63378
3.81459  1.21748
3.83358  0.872739
3.85256  0.860635
3.87155  1.15486
3.89053  1.303
3.90952  0.959819
3.92851  0.500334
3.94749  0.175995
3.96648  0.404348
3.98547  0.562894
4.00445  0.50824
4.02344  0.816767
4.04242  0.882974
4.06141  0.78656
4.0804  0.637374
4.09938  0.663777
4.11837  0.563339
4.13735  0.737441
4.15634  0.995229
4.17533  1.05688
4.19431  0.99712
4.2133  0.987973
4.23229  1.06518
4.25127  0.852821
4.27026  0.856638
4.28924  0.829962
4.30823  1.17826
4.32722  0.839684
4.3462  0.51498
4.36519  0.731298
4.38418  0.925646
4.40316  1.15081
4.42215  1.1635
4.44113  0.839414
4.46012  0.549087
4.47911  -0.12125
4.49809  -0.199659
4.51708  0.161779
4.53606  0.227357
4.55505  0.259372
4.57404  0.399583
4.59302  0.388535
4.61201  0.121882
4.631  -0.0589275
4.64998  0.416508
4.66897  0.628662
4.68795  1.05741
4.70694  0.862924
4.72593  0.819704
4.74491  1.11163
4.7639  1.21684
4.78289  0.814056
4.80187  0.520944
4.82086  0.194981
4.83984  0.508955
4.85883  0.297873
4.87782  0.807041
4.8968  1.48207
4.91579  1.35571
4.93478  0.670599
4.95376  0.419715
4.97275  0.200598
4.99173  -0.178343
5.01072  -0.184086
5.02971  0.113697
5.04869  0.469368
5.06768  0.169628
5.08666  0.130267
5.10565  0.393222
5.12464  1.03824
5.14362  1.15806
5.16261  0.642809
5.1816  0.227156
5.20058  0.142444
5.21957  0.00399255
5.23855  0.259288
5.25754  0.766248
5.27653  1.20113
5.29551  1.18022
5.3145  1.45471
5.33349  1.5449
5.35247  1.41637
5.37146  1.10278
5.39044  0.597941
5.40943  0.298939
5.42842  -0.150674
5.4474  -0.0566894
5.46639  9.06511e-05
5.48537  0.739233
5.50436  0.882823
5.52335  0.990562
5.54233  0.514808
5.56132  0.517123
5.58031  0.0760979
5.59929  0.131736
5.61828  0.605664
5.63726  0.372469
5.65625  0.0983059
5.67524  0.131134
5.69422  0.468139
5.71321  1.27962
5.7322  1.8401
5.75118  1.90045
5.77017  1.60596
5.78915  1.41345
5.80814  1.39482
5.82713  1.70782
5.84611  2.10526
5.8651  1.75672
5.88408  1.36134
5.90307  0.873887
5.92206  0.973512
5.94104  1.15936
5.96003  1.20929
5.97902  1.45826
5.998  1.50517
6.01699  2.18282
6.03597  2.55281
6.05496  2.74816
6.07395  2.62656
6.09293  2.22786
6.11192  1.47364
6.13091  0.622627
6.14989  0.0235473
6.16888  -0.459594
6.18786  -0.251664
6.20685  -0.044723
6.22584  0.0971111
6.24482  0.170693
6.26381  0.154845
6.28279  0.0440841
6.30178  0.237051
6.32077  1.11679
6.33975  1.81771
6.35874  2.02764
6.37773  1.76889
6.39671  1.70094
6.4157  2.463
6.43468  3.33448
6.45367  4.33622
6.47266  6.14254
6.49164  7.2321
6.51063  7.71371
6.52962  7.00941
6.5486  5.97011
6.56759  5.16237
6.58657  4.11059
6.60556  3.06337
6.62455  2.22347
6.64353  2.28105
6.66252  2.6414
6.6815  2.92235
6.70049  3.45141
6.71948  4.19893
6.73846  5.88833
6.75745  8.03256
6.77644  11.3162
6.79542  15.4312
6.81441  21.5166
6.83339  29.5345
6.85238  37.4744
6.87137  45.1282
6.89035  50.8727
6.90934  51.7269
6.92833  49.6266
6.94731  45.2772
6.9663  43.5583
6.98528  45.188
7.00427  51.7816
7.02326  65.3301
7.04224  84.0636
7.06123  111.771
7.08021  143.046
7.0992  173.325
7.11819  198.561
7.13717  210.064
7.15616  208.64
7.17515  194.311
7.19413  170.343
7.21312  139.501
7.2321  107.237
7.25109  78.4758
7.27008  56.8747
7.28906  41.7192
7.30805  30.7483
7.32704  23.3681
7.34602  17.9307
7.36501  14.5688
7.38399  11.8566
7.40298  10.1356
7.42197  8.71097
7.44095  7.59886
7.45994  6.51077
7.47892  5.44839
7.49791  4.34378
7.5169  3.64019
7.53588  3.40669
7.55487  3.25246
7.57386  2.59188
7.59284  1.86543
7.61183  1.00715
7.63081  0.497036
7.6498  0.20896
7.66879  0.755508
7.68777  1.30578
7.70676  0.88787
7.72575  0.553487
7.74473  0.446676
7.76372  0.75904
7.7827  0.80376
7.80169  0.344048
7.82068  -0.360612
7.83966  -0.369164
7.85865  -0.140362
7.87764  -0.0264146
7.89662  -0.341792
7.91561  -0.11665
7.93459  0.644452
7.95358  1.03313
7.97257  1.19731
7.99155  0.9472
8.01054  0.71357
8.02952  1.00494
8.04851  1.16382
8.0675  1.50251
8.08648  1.34664
8.10547  1.62619
8.12446  1.42518
8.14344  1.17519
8.16243  0.665735
8.18141  0.346038
8.2004  0.274895
8.21939  0.406618
8.23837  0.504076
8.25736  0.301293
8.27635  0.047769
8.29533  0.0157592
8.31432  0.220481
8.3333  0.735229
8.35229  1.11118
8.37128  1.01504
8.39026  0.421409
8.40925  0.243764
8.42823  0.516213
8.44722  0.629049
8.46621  0.674819
8.48519  0.570155
8.50418  0.671263
8.52317  0.555592
8.54215  0.558207
8.56114  0.738291
8.58012  0.747373
8.59911  0.892758
8.6181  0.948964
8.63708  0.681242
8.65607  0.447867
8.67506  0.162498
8.69404  -0.272966
8.71303  -0.567676
8.73201  -0.62411
8.751  -0.676199
8.76999  -0.867917
8.78897  -0.981565
8.80796  -1.24997
8.82694  -1.40317
8.84593  -1.22777
8.86492  -0.840177
8.8839  -0.753181
8.90289  -0.67785
8.92188  -0.356655
8.94086  0.0207586
8.95985  0.818807
8.97883  1.90083
8.99782  2.83578
9.01681  4.02021
9.03579  4.47255
9.05478  5.69721
9.07377  6.33422
9.09275  7.45515
9.11174  8.19809
9.13072  9.25311
9.14971  10.6718
9.1687  12.6337
9.18768  15.8042
9.20667  20.1693
9.22565  28.1971
9.24464  39.572
9.26363  58.9301
9.28261  89.971
9.3016  141.937
9.32059  231.241
9.33957  362.764
9.35856  531.283
9.37754  718.553
9.39653  892.418
9.41552  1009.46
9.4345  1071.49
9.45349  1066.09
9.47248  1021.06
9.49146  943.425
9.51045  835.082
9.52943  730.356
9.54842  633.278
9.56741  565.577
9.58639  538.308
9.60538  544.296
9.62436  571.595
9.64335  612.01
9.66234  652.184
9.68132  687.336
9.70031  720.177
9.7193  752.604
9.73828  769.045
9.75727  764.581
9.77625  726.335
9.79524  673.801
9.81423  605.802
9.83321  539.216
9.8522  470.826
9.87119  408.36
9.89017  351.599
9.90916  300.657
9.92814  256.578
9.94713  220.234
9.96612  189.525
9.9851  166.47
10.0041  145.605
10.0231  129.347
10.0421  114.751
10.061  100.73
10.08  86.5198
10.099  74.3338
10.118  62.114
10.137  51.2921
10.156  41.2903
10.175  31.8748
10.194  25.2257
10.2129  18.2394
10.2319  13.2495
10.2509  9.26146
10.2699  6.28644
10.2889  3.91322
10.3079  1.029
10.3269  -0.548309
10.3458  -1.27239
10.3648  -1.82986
10.3838  -2.28612
10.4028  -2.94059
10.4218  -2.89679
10.4408  -2.65278
10.4598  -1.72312
10.4787  -1.04921
10.4977  -0.395526
10.5167  0.12687
10.5357  0.50342
10.5547  1.11384
10.5737  1.13843
10.5927  1.3226
10.6116  1.40711
10.6306  2.45885
10.6496  3.44097
10.6686  4.40478
10.6876  5.50906
10.7066  6.78065
10.7256  8.48387
10.7446  8.95477
10.7635  9.75436
10.7825  9.74444
10.8015  10.1759
10.8205  10.9881
10.8395  12.1877
10.8585  13.6248
10.8775  15.1162
10.8964  16.5338
10.9154  18.3608
10.9344  20.5279
10.9534  23.067
10.9724  25.9916
10.9914  28.889
11.0104  31.9245
11.0293  34.562
11.0483  37.7693
11.0673  40.9269
11.0863  44.755
11.1053  48.7847
11.1243  52.6265
11.1433  55.653
11.1622  58.6075
11.1812  60.2528
11.2002  61.5708
11.2192  60.7728
11.2382  60.4249
11.2572  59.1824
11.2762  58.5929
11.2951  56.0848
11.3141  53.1321
11.3331  49.3537
11.3521  46.2174
11.3711  42.5519
11.3901  38.5803
11.4091  34.8567
11.4281  30.6754
11.447  26.9586
11.466  22.9046
11.485  19.7246
11.504  16.4096
11.523  14.1912
11.542  11.9497
11.561  9.74193
11.5799  7.67402
11.5989  5.69511
11.6179  4.51649
11.6369  2.94577
11.6559  1.94559
11.6749  0.880978
11.6939  0.491123
11.7128  0.802645
11.7318  0.709045
11.7508  0.903343
11.7698  0.693648
11.7888  0.989503
11.8078  1.30412
11.8268  1.92182
11.8457  2.24077
11.8647  1.61506
11.8837  1.10196
11.9027  0.0908576
11.9217  -0.0222869
11.9407  -0.530197
11.9597  -0.330898
11.9787  1.01179
11.9976  2.10617
12.0166  4.1567
12.0356  6.22863
12.0546  9.83121
12.0736  14.9487
12.0926  21.4847
12.1116  33.0029
12.1305  47.6885
12.1495  72.0651
12.1685  100.974
12.1875  137.445
12.2065  185.957
12.2255  228.936
12.2445  277.994
12.2634  329.008
12.2824  365.993
12.3014  407.176
12.3204  447.918
12.3394  469.126
12.3584  474.888
12.3774  464.398
12.3963  432.452
12.4153  389.014
12.4343  346.256
12.4533  300.31
12.4723  255.139
12.4913  211.546
12.5103  178.586
12.5293  148.245
12.5482  128.243
12.5672  110.926
12.5862  98.5717
12.6052  89.1241
12.6242  80.5755
12.6432  74.6707
12.6622  67.7823
12.6811  62.5566
12.7001  58.3119
12.7191  54.8811
12.7381  52.9885
12.7571  51.0535
12.7761  50.3005
12.7951  49.1281
12.814  49.0289
12.833  49.5486
12.852  49.4573
12.871  50.9029
12.89  51.1981
12.909  53.1173
12.928  54.1902
12.9469  56.3953
12.9659  58.3673
12.9849  59.4436
13.0039  61.2827
13.0229  61.6597
13.0419  62.6184
13.0609  61.9129
13.0799  61.9249
13.0988  61.6054
13.1178  61.0654
13.1368  61.2712
13.1558  60.6523
13.1748  61.1086
13.1938  60.1843
13.2128  60.8177
13.2317  61.1039
13.2507  61.4228
13.2697  60.9782
13.2887  60.0124
13.3077  59.527
13.3267  58.1067
13.3457  56.6809
13.3646  54.51
13.3836  52.1251
13.4026  49.2529
13.4216  46.5989
13.4406  43.7358
13.4596  39.8285
13.4786  36.1831
13.4975  31.9076
13.5165  28.7369
13.5355  25.0652
13.5545  22.3739
13.5735  19.5274
13.5925  16.5953
13.6115  14.2574
13.6305  11.776
13.6494  9.99797
13.6684  8.42174
13.6874  6.65115
13.7064  5.33215
13.7254  3.45804
13.7444  2.11356
13.7634  0.529692
13.7823  -0.105436
13.8013  -0.663188
13.8203  -1.3804
13.8393  -1.5955
13.8583  -2.32718
13.8773  -2.2471
13.8963  -2.39035
13.9152  -2.46638
13.9342  -1.89804
13.9532  -0.925638
13.9722  0.484984
13.9912  1.9179
14.0102  2.90253
14.0292  3.98528
14.0481  5.43324
14.0671  6.92369
14.0861  8.44496
14.1051  9.91921
14.1241  11.3368
14.1431  12.7499
14.1621  13.7145
14.1811  15.493
14.2  16.9396
14.219  18.4197
14.238  19.4187
14.257  19.8726
14.276  19.979
14.295  19.8018
14.314  19.1908
14.3329  17.8962
14.3519  16.3134
14.3709  14.6057
14.3899  13.1961
14.4089  11.9554
14.4279  10.6908
14.4469  8.96983
14.4658  7.10658
14.4848  5.67762
14.5038  4.36758
14.5228  3.30396
14.5418  2.5631
14.5608  2.00734
14.5798  1.60577
14.5987  1.02987
14.6177  0.70717
14.6367  0.596712
14.6557  0.17174
14.6747  -0.12409
14.6937  -0.385285
14.7127  -0.639704
14.7317  -0.908403
14.7506  -0.897471
14.7696  -1.24776
14.7886  -0.951999
14.8076  -0.871955
14.8266  -0.718523
14.8456  -0.491686
14.8646  -0.238767
14.8835  -0.212275
14.9025  -0.217531
14.9215  -0.598114
14.9405  -0.470465
14.9595  -0.343147
14.9785  -0.326684
14.9975  -0.0658909
15.0164  -0.0119216
15.0354  0.486912
15.0544  0.592747
15.0734  0.873326
15.0924  0.652173
15.1114  0.390533
15.1304  -0.24004
15.1493  -0.218323
15.1683  0.602497
15.1873  1.69571
15.2063  2.12841
15.2253  2.25841
15.2443  2.41288
15.2633  2.71425
15.2823  2.96319
15.3012  2.97502
15.3202  2.99656
15.3392  2.87052
15.3582  2.93012
15.3772  2.83869
15.3962  2.56328
15.4152  2.20917
15.4341  1.81672
15.4531  1.89587
15.4721  1.22694
15.4911  1.05223
15.5101  0.815102
15.5291  1.1531
15.5481  1.11411
15.567  1.18841
15.586  0.823113
15.605  0.742514
15.624  0.315083
15.643  0.0947439
15.662  -0.0068915
15.681  -0.0753386
15.6999  -0.170121
15.7189  -0.343753
15.7379  -0.135374
15.7569  0.114795
15.7759  0.148635
15.7949  0.294168
15.8139  0.379625
15.8329  0.577208
15.8518  0.145537
15.8708  0.0173623
15.8898  0.0882534
15.9088  0.534004
15.9278  0.993825
15.9468  1.45682
15.9658  1.84282
15.9847  1.89137
16.0037  2.15246
16.0227  2.55689
16.0417  2.89444
16.0607  3.17877
16.0797  3.56875
16.0987  3.82942
16.1176  3.95639
16.1366  4.34808
16.1556  5.18228
16.1746  5.7752
16.1936  6.70267
16.2126  7.53513
16.2316  8.8124
16.2505  9.75913
16.2695  10.5639
16.2885  11.2525
16.3075  12.1917
16.3265  12.9658
16.3455  14.0696
16.3645  14.6813
16.3834  15.1743
16.4024  15.6225
16.4214  15.9654
16.4404  16.2839
16.4594  16.6593
16.4784  16.8265
16.4974  16.5583
16.5164  16.1046
16.5353  16.3728
16.5543  16.6955
16.5733  16.2503
16.5923  16.0403
16.6113  15.9382
16.6303  16.0781
16.6493  16.7048
16.6682  17.5737
16.6872  19.1043
16.7062  21.5655
16.7252  24.1267
16.7442  27.133
16.7632  30.7355
16.7822  35.1707
16.8011  40.3194
16.8201  45.1983
16.8391  50.6329
16.8581  56.1794
16.8771  60.58
16.8961  63.5324
16.9151  64.5358
16.934  61.5284
16.953  56.564
16.972  48.5441
16.991  40.5754
17.01  32.5058
17.029  26.7372
17.048  21.4758
17.067  17.3159
17.0859  14.1979
17.1049  11.4969
17.1239  9.92709
17.1429  8.81178
17.1619  7.03084
17.1809  5.76096
17.1999  4.71657
17.2188  3.6418
17.2378  3.18282
17.2568  2.39001
17.2758  1.98007
17.2948  1.29408
17.3138  0.888828
17.3328  0.465209
17.3517  0.30696
17.3707  0.0698965
17.3897  0.234389
17.4087  0.0810408
17.4277  0.162824
17.4467  -0.0777564
17.4657  -0.499355
17.4846  -0.714892
17.5036  -0.765518
17.5226  -0.697258
17.5416  -0.679266
17.5606  -0.797421
17.5796  -1.18195
17.5986  -1.15132
17.6176  -0.825088
17.6365  -0.582735
17.6555  -0.502677
17.6745  -0.0727115
17.6935  0.388165
17.7125  0.850347
17.7315  1.1879
17.7505  1.29601
17.7694  1.68837
17.7884  2.06336
17.8074  2.92493
17.8264  3.55875
17.8454  4.30138
17.8644  4.79954
17.8834  5.16751
17.9023  5.65499
17.9213  6.00194
17.9403  6.64796
17.9593  7.06131
17.9783  8.27111
17.9973  9.7832
18.0163  11.6419
18.0352  14.0568
18.0542  16.7172
18.0732  19.9207
18.0922  23.4274
18.1112  28.0012
18.1302  33.1457
18.1492  38.2669
18.1682  43.2408
18.1871  47.9403
18.2061  53.1988
18.2251  58.9509
18.2441  65.8285
18.2631  73.6124
18.2821  82.5099
18.3011  91.9783
18.32  101.854
18.339  110.645
18.358  116.868
18.377  119.42
18.396  118.091
18.415  113.975
18.434  106.665
18.4529  98.0161
18.4719  87.7769
18.4909  77.9837
18.5099  68.5494
18.5289  60.8837
18.5479  54.9586
18.5669  50.4966
18.5858  46.5769
18.6048  43.5493
18.6238  40.8065
18.6428  38.3547
18.6618  35.8264
18.6808  33.4942
18.6998  31.1093
18.7188  28.4022
18.7377  25.2081
18.7567  22.2119
18.7757  18.9775
18.7947  16.3584
18.8137  14.2
18.8327  12.3033
18.8517  10.6764
18.8706  9.42461
18.8896  9.20447
18.9086  8.3068
18.9276  7.67091
18.9466  7.21453
18.9656  7.27792
18.9846  7.37143
19.0035  7.13137
19.0225  7.55468
19.0415  7.86715
19.0605  8.00131
19.0795  8.1102
19.0985  8.644
19.1175  8.8278
19.1364  9.18157
19.1554  9.22039
19.1744  9.52695
19.1934  9.77668
19.2124  10.0486
19.2314  10.3699
19.2504  11.0333
19.2694  11.5816
19.2883  12.4765
19.3073  13.0625
19.3263  13.7884
19.3453  14.347
19.3643  14.9942
19.3833  15.8098
19.4023  16.325
19.4212  16.4067
19.4402  15.9083
19.4592  15.4562
19.4782  14.824
19.4972  13.7207
19.5162  12.4163
19.5352  10.7244
19.5541  9.0639
19.5731  7.02614
19.5921  5.81564
19.6111  4.46512
19.6301  3.49346
19.6491  2.3482
19.6681  1.99834
19.687  1.59221
19.706  1.22912
19.725  0.835057
19.744  0.774399
19.763  0.721359
19.782  0.862642
19.801  1.16172
19.82  1.5203
19.8389  2.20711
19.8579  2.81562
19.8769  3.68199
19.8959  4.92091
19.9149  7.03745
19.9339  9.58499
19.9529  12.1447
19.9718  15.5222
19.9908  19.3887
20.0098  23.5178
20.0288  27.7118
20.0478  30.8158
20.0668  33.5404
20.0858  35.2438
20.1047  36.7935
20.1237  37.216
20.1427  37.3408
20.1617  36.8526
20.1807  36.5575
20.1997  35.8076
20.2187  34.6988
20.2376  33.2997
20.2566  31.9055
20.2756  30.8817
20.2946  29.7697
20.3136  28.9447
20.3326  28.3838
20.3516  28.3398
20.3706  28.0182
20.3895  27.8085
20.4085  27.9048
20.4275  27.8733
20.4465  27.7654
20.4655  27.7147
20.4845  27.9165
20.5035  27.9704
20.5224  27.888
20.5414  28.0088
20.5604  28.2631
20.5794  28.1895
20.5984  28.0589
20.6174  27.9618
20.6364  27.3155
20.6553  26.8467
20.6743  26.1676
20.6933  25.3404
20.7123  24.7895
20.7313  23.9928
20.7503  23.209
20.7693  22.3419
20.7882  21.7516
20.8072  21.4435
20.8262  21.0094
20.8452  19.8584
20.8642  19.0541
20.8832  18.4374
20.9022  17.8529
20.9212  17.0797
20.9401  16.2123
20.9591  15.2704
20.9781  14.9005
20.9971  14.6026
21.0161  14.0119
21.0351  13.4213
21.0541  13.0372
21.073  12.5897
21.092  12.0757
21.111  11.4212
21.13  10.8075
21.149  10.3247
21.168  9.71087
21.187  9.00323
21.2059  8.50209
21.2249  7.96792
21.2439  7.46728
21.2629  6.55358
21.2819  6.25787
21.3009  5.58719
21.3199  5.26467
21.3388  4.36352
21.3578  3.62374
21.3768  2.83115
21.3958  2.63466
21.4148  2.45031
21.4338  2.31044
21.4528  2.07876
21.4717  1.96727
21.4907  1.72798
21.5097  1.38666
21.5287  1.08796
21.5477  1.09991
21.5667  1.05866
21.5857  1.01095
21.6047  0.834873
21.6236  0.558955
21.6426  0.676894
21.6616  0.53036
21.6806  0.57601
21.6996  0.3023
21.7186  0.457835
21.7376  0.597131
21.7565  0.971837
21.7755  1.16873
21.7945  0.966678
21.8135  0.702731
21.8325  0.227465
21.8515  -0.109489
21.8705  -0.513525
21.8894  -0.597333
21.9084  -0.569468
21.9274  -0.61095
21.9464  -0.395462
21.9654  -0.208918
21.9844  -0.265634
22.0034  -0.280748
22.0223  -0.251993
22.0413  -0.21547
22.0603  -0.147895
22.0793  -0.136403
22.0983  0.0360046
22.1173  0.532934
22.1363  0.956035
22.1553  1.41224
22.1742  2.01058
22.1932  2.91844
22.2122  3.97889
22.2312  4.95753
22.2502  6.18712
22.2692  7.39423
22.2882  8.05304
22.3071  7.98631
22.3261  7.39422
22.3451  6.49067
22.3641  5.42356
22.3831  4.58511
22.4021  3.55965
22.4211  2.79597
22.44  2.01292
22.459  1.42654
22.478  0.99234
22.497  0.705173
22.516  0.641202
22.535  0.508413
22.554  0.391547
22.5729  0.626939
22.5919  0.780783
22.6109  0.799187
22.6299  0.51773
22.6489  0.387956
22.6679  0.357655
22.6869  0.143845
22.7059  0.0935263
22.7248  -0.119491
22.7438  -0.124639
22.7628  0.0103539
22.7818  0.353739
22.8008  0.752196
22.8198  0.818293
22.8388  0.655525
22.8577  0.573672
22.8767  0.685213
22.8957  0.597565
22.9147  0.328722
22.9337  0.144085
22.9527  0.0287482
22.9717  0.217407
22.9906  0.441571
23.0096  0.593943
23.0286  0.385798
23.0476  0.385907
23.0666  0.283208
23.0856  0.276691
23.1046  0.416911
23.1235  0.696848
23.1425  0.447601
23.1615  0.103134
23.1805  0.0717964
23.1995  -0.0122337
23.2185  0.0238403
23.2375  -0.106979
23.2565  -0.0326095
23.2754  -0.0902325
23.2944  -0.236624
23.3134  -0.151442
23.3324  0.0522369
23.3514  0.217898
23.3704  0.352731
23.3894  0.42279
23.4083  0.410178
23.4273  0.210794
23.4463  0.13848
23.4653  0.344085
23.4843  0.770002
23.5033  0.983371
23.5223  0.835424
23.5412  0.377403
23.5602  0.0518498
23.5792  -0.0749029
23.5982  -0.0208978
23.6172  0.16861
23.6362  0.38985
23.6552  0.55272
23.6741  0.468267
23.6931  0.339769
23.7121  0.106533
23.7311  0.0308159
23.7501  -0.0373342
23.7691  0.257014
23.7881  0.307024
23.8071  0.298626
23.826  0.139974
23.845  0.201447
23.864  0.376752
23.883  0.271911
23.902  0.124263
23.921  0.109455
23.94  0.330958
23.9589  0.394803
23.9779  0.311608
23.9969  0.0401179
24.0159  -0.320403
24.0349  -0.361536
24.0539  -0.332722
24.0729  0.0312354
24.0918  0.310576
24.1108  0.293168
24.1298  0.143774
24.1488  -0.00233621
24.1678  0.120247
24.1868  -0.0605117
24.2058  -0.0694614
24.2247  -0.344451
24.2437  0.233047