File: data/processed/Run1_XRD/18_ReMoB2_60p0GPa_300psi_release_P1_C4_D1w_126.dat
2.82731  0.0633597
2.84629  0.86705
2.86528  1.24375
2.88427  1.09556
2.90325  0.709676
2.92224  0.507299
2.94122  0.142437
2.96021  1.19769
2.9792  1.81232
2.99818  2.31676
3.01717  1.85869
3.03616  1.00575
3.05514  0.699192
3.07413  0.687066
3.09311  1.73625
3.1121  1.99463
3.13109  1.42807
3.15007  0.501153
3.16906  0.3203
3.18805  0.169627
3.20703  0.643458
3.22602  1.01837
3.245  0.984149
3.26399  1.16215
3.28298  1.70372
3.30196  2.27733
3.32095  2.9369
3.33993  3.37373
3.35892  4.01218
3.37791  4.46815
3.39689  5.22615
3.41588  6.68792
3.43487  8.42478
3.45385  10.9864
3.47284  14.796
3.49182  19.5085
3.51081  23.9594
3.5298  26.4388
3.54878  25.3775
3.56777  22.292
3.58676  17.1695
3.60574  12.5096
3.62473  8.44995
3.64371  5.67056
3.6627  4.02036
3.68169  2.94288
3.70067  2.33377
3.71966  1.94407
3.73864  2.03299
3.75763  2.02135
3.77662  2.03135
3.7956  2.0837
3.81459  1.89506
3.83358  1.60778
3.85256  1.51251
3.87155  1.48913
3.89053  1.18771
3.90952  1.4131
3.92851  1.58611
3.94749  1.77543
3.96648  1.66879
3.98547  0.840195
4.00445  0.482538
4.02344  0.455027
4.04242  0.693494
4.06141  0.638146
4.0804  -0.0428691
4.09938  0.170604
4.11837  0.205959
4.13735  0.062143
4.15634  0.297875
4.17533  0.544582
4.19431  1.165
4.2133  0.946881
4.23229  0.693146
4.25127  0.338694
4.27026  0.34734
4.28924  0.164896
4.30823  0.857351
4.32722  0.685598
4.3462  0.275733
4.36519  0.779524
4.38418  0.855085
4.40316  0.671258
4.42215  0.0796683
4.44113  0.292689
4.46012  0.598219
4.47911  0.333348
4.49809  0.329764
4.51708  0.762222
4.53606  1.05996
4.55505  0.626574
4.57404  0.734854
4.59302  1.00353
4.61201  0.707414
4.631  0.32299
4.64998  -0.104491
4.66897  -0.157688
4.68795  0.463867
4.70694  0.842914
4.72593  2.0925
4.74491  2.4658
4.7639  2.26886
4.78289  1.49595
4.80187  1.07888
4.82086  0.740801
4.83984  0.55368
4.85883  0.298593
4.87782  0.321847
4.8968  1.02752
4.91579  1.29828
4.93478  1.92703
4.95376  1.03403
4.97275  0.195329
4.99173  -0.177885
5.01072  0.357766
5.02971  0.962574
5.04869  1.36018
5.06768  1.67975
5.08666  1.41571
5.10565  1.28366
5.12464  0.942538
5.14362  0.789592
5.16261  0.634566
5.1816  0.451212
5.20058  0.00474286
5.21957  -0.122344
5.23855  0.282781
5.25754  1.12233
5.27653  1.66255
5.29551  1.27473
5.3145  0.746084
5.33349  0.669503
5.35247  0.865963
5.37146  0.667397
5.39044  0.605703
5.40943  0.162467
5.42842  0.430913
5.4474  0.186594
5.46639  0.301507
5.48537  0.403191
5.50436  0.31186
5.52335  0.534683
5.54233  0.0612458
5.56132  -0.157809
5.58031  -0.293816
5.59929  -0.0356268
5.61828  0.386136
5.63726  0.702872
5.65625  0.898233
5.67524  0.373081
5.69422  0.0724136
5.71321  0.304578
5.7322  1.12027
5.75118  1.4255
5.77017  1.68607
5.78915  1.61592
5.80814  1.69102
5.82713  0.890997
5.84611  0.365907
5.8651  0.187226
5.88408  0.852108
5.90307  0.774809
5.92206  0.747162
5.94104  0.857143
5.96003  1.49615
5.97902  2.12326
5.998  2.53276
6.01699  2.66482
6.03597  2.85373
6.05496  2.37231
6.07395  1.474
6.09293  0.839363
6.11192  0.432031
6.13091  0.545314
6.14989  0.578793
6.16888  0.51828
6.18786  -0.0350047
6.20685  0.140231
6.22584  0.437488
6.24482  0.424169
6.26381  0.179918
6.28279  0.177715
6.30178  0.863787
6.32077  1.51967
6.33975  2.63331
6.35874  4.63531
6.37773  7.10244
6.39671  9.7224
6.4157  12.0964
6.43468  13.8089
6.45367  14.3926
6.47266  12.7509
6.49164  10.1874
6.51063  7.1763
6.52962  4.88786
6.5486  2.84367
6.56759  2.22622
6.58657  2.10145
6.60556  2.08202
6.62455  2.27681
6.64353  2.49638
6.66252  2.95466
6.6815  3.83238
6.70049  5.12426
6.71948  6.75504
6.73846  9.01075
6.75745  11.4898
6.77644  14.2529
6.79542  17.0049
6.81441  19.1924
6.83339  21.1805
6.85238  22.8274
6.87137  24.7836
6.89035  27.1874
6.90934  31.1276
6.92833  37.5615
6.94731  47.7374
6.9663  61.572
6.98528  79.2955
7.00427  100.069
7.02326  122.718
7.04224  141.482
7.06123  154.872
7.08021  156.889
7.0992  149.433
7.11819  133.663
7.13717  113.711
7.15616  93.4803
7.17515  75.4668
7.19413  59.3604
7.21312  46.3872
7.2321  35.9748
7.25109  27.5481
7.27008  20.9815
7.28906  15.8292
7.30805  12.3096
7.32704  9.75375
7.34602  7.74724
7.36501  6.89942
7.38399  6.33057
7.40298  5.55687
7.42197  4.84154
7.44095  4.31054
7.45994  3.86647
7.47892  3.31189
7.49791  2.70383
7.5169  1.72422
7.53588  1.45557
7.55487  1.15101
7.57386  1.01076
7.59284  0.817559
7.61183  0.554457
7.63081  0.607087
7.6498  0.787811
7.66879  0.808855
7.68777  0.70223
7.70676  0.409022
7.72575  0.460232
7.74473  0.0271876
7.76372  -0.0663643
7.7827  -0.1836
7.80169  -0.381006
7.82068  -0.472924
7.83966  -0.355015
7.85865  -0.216776
7.87764  0.0871875
7.89662  0.662469
7.91561  1.38925
7.93459  1.67408
7.95358  1.29733
7.97257  1.12372
7.99155  0.66739
8.01054  0.634271
8.02952  0.596701
8.04851  0.756868
8.0675  0.807485
8.08648  0.596763
8.10547  0.265882
8.12446  -0.211224
8.14344  -0.0752185
8.16243  0.626576
8.18141  0.967836
8.2004  0.866252
8.21939  0.370626
8.23837  0.0416613
8.25736  0.196857
8.27635  0.657296
8.29533  1.03618
8.31432  1.15285
8.3333  1.03818
8.35229  0.989959
8.37128  0.773199
8.39026  0.707405
8.40925  0.38108
8.42823  0.570993
8.44722  0.41393
8.46621  0.257818
8.48519  0.152432
8.50418  0.425793
8.52317  0.628994
8.54215  0.357334
8.56114  -0.110063
8.58012  -0.158611
8.59911  -0.287098
8.6181  -0.174057
8.63708  -0.101588
8.65607  -0.0490731
8.67506  -0.0301698
8.69404  0.163437
8.71303  -0.212817
8.73201  -0.409292
8.751  -0.674897
8.76999  -0.70109
8.78897  -0.631572
8.80796  -0.745089
8.82694  -0.519398
8.84593  -0.0131883
8.86492  0.934088
8.8839  1.80975
8.90289  2.71485
8.92188  3.32035
8.94086  4.37712
8.95985  5.6576
8.97883  7.33598
8.99782  8.89089
9.01681  11.5688
9.03579  14.8955
9.05478  19.0485
9.07377  24.4021
9.09275  31.0295
9.11174  39.9291
9.13072  52.9527
9.14971  72.1031
9.1687  98.6882
9.18768  144.02
9.20667  214.384
9.22565  319.929
9.24464  467.544
9.26363  646.207
9.28261  809.833
9.3016  920.151
9.32059  953.938
9.33957  910.997
9.35856  826.169
9.37754  713.016
9.39653  615.264
9.41552  538.563
9.4345  479.515
9.45349  448.607
9.47248  435.456
9.49146  438.279
9.51045  456.63
9.52943  488.403
9.54842  531.123
9.56741  572.52
9.58639  598.878
9.60538  609.546
9.62436  607.797
9.64335  599.953
9.66234  580.981
9.68132  551.423
9.70031  515.846
9.7193  476.914
9.73828  432.292
9.75727  388.138
9.77625  341.892
9.79524  299.754
9.81423  260.298
9.83321  225.88
9.8522  196.071
9.87119  170.491
9.89017  149.618
9.90916  129.19
9.92814  110.007
9.94713  93.5101
9.96612  79.1064
9.9851  65.9447
10.0041  54.7551
10.0231  44.3817
10.0421  35.3415
10.061  27.7437
10.08  20.6734
10.099  16.3541
10.118  11.7965
10.137  8.89263
10.156  6.35902
10.175  4.37488
10.194  3.1325
10.2129  1.5435
10.2319  0.102247
10.2509  -1.28034
10.2699  -2.14462
10.2889  -2.06113
10.3079  -2.98315
10.3269  -2.93801
10.3458  -2.73025
10.3648  -2.22289
10.3838  -1.26261
10.4028  -0.414284
10.4218  0.698104
10.4408  1.31677
10.4598  1.52785
10.4787  1.55269
10.4977  1.97165
10.5167  2.13384
10.5357  2.46873
10.5547  3.1827
10.5737  3.92104
10.5927  5.47753
10.6116  6.82706
10.6306  8.46088
10.6496  9.10249
10.6686  9.57039
10.6876  10.0149
10.7066  10.4709
10.7256  11.4597
10.7446  12.5293
10.7635  14.2698
10.7825  15.7925
10.8015  17.3296
10.8205  18.7772
10.8395  20.4774
10.8585  22.3922
10.8775  24.3974
10.8964  26.3402
10.9154  28.3609
10.9344  30.4113
10.9534  32.2569
10.9724  34.5344
10.9914  36.8948
11.0104  39.4115
11.0293  42.1997
11.0483  44.2244
11.0673  46.3316
11.0863  47.2372
11.1053  48.4678
11.1243  48.4448
11.1433  47.4129
11.1622  45.617
11.1812  42.9223
11.2002  39.3938
11.2192  36.2449
11.2382  33.2153
11.2572  30.0904
11.2762  26.8997
11.2951  23.4672
11.3141  20.6275
11.3331  17.4867
11.3521  14.4558
11.3711  10.8044
11.3901  7.31334
11.4091  4.82376
11.4281  2.6666
11.447  1.11667
11.466  -0.555137
11.485  -1.66259
11.504  -2.728
11.523  -1.70606
11.542  -0.311877
11.561  0.658419
11.5799  1.76867
11.5989  2.70696
11.6179  4.17435
11.6369  4.69388
11.6559  5.26157
11.6749  5.27051
11.6939  5.62957
11.7128  6.8707
11.7318  8.42168
11.7508  11.1274
11.7698  14.1377
11.7888  17.4012
11.8078  21.4011
11.8268  26.2466
11.8457  32.9327
11.8647  41.0239
11.8837  50.9206
11.9027  64.5812
11.9217  81.3653
11.9407  106.788
11.9597  142.47
11.9787  189.612
11.9976  267.884
12.0166  358.783
12.0356  488.015
12.0546  625.11
12.0736  736.747
12.0926  794.593
12.1116  794.486
12.1305  740.462
12.1495  651.637
12.1685  568.196
12.1875  489.578
12.2065  432.099
12.2255  382.69
12.2445  346.485
12.2634  318.097
12.2824  293.304
12.3014  268.368
12.3204  244.155
12.3394  213.764
12.3584  183.178
12.3774  152.754
12.3963  125.007
12.4153  101.88
12.4343  82.9828
12.4533  69.828
12.4723  58.9973
12.4913  50.662
12.5103  45.5741
12.5293  41.6259
12.5482  39.1922
12.5672  36.0995
12.5862  33.7094
12.6052  32.8166
12.6242  31.7525
12.6432  31.6865
12.6622  30.5908
12.6811  30.2867
12.7001  29.4157
12.7191  28.8716
12.7381  28.3624
12.7571  27.5993
12.7761  27.4826
12.7951  27.138
12.814  27.0168
12.833  27.1088
12.852  27.6661
12.871  28.3145
12.89  28.629
12.909  29.156
12.928  29.7412
12.9469  30.2617
12.9659  30.1084
12.9849  29.706
13.0039  29.4499
13.0229  29.5036
13.0419  29.6405
13.0609  29.4554
13.0799  28.897
13.0988  28.0859
13.1178  28.3838
13.1368  28.6769
13.1558  28.2173
13.1748  27.801
13.1938  27.9263
13.2128  28.418
13.2317  28.4428
13.2507  27.8429
13.2697  26.9979
13.2887  26.0112
13.3077  25.2016
13.3267  23.5507
13.3457  21.8537
13.3646  19.8298
13.3836  17.8333
13.4026  15.6315
13.4216  13.585
13.4406  12.0018
13.4596  10.5299
13.4786  8.96836
13.4975  7.19961
13.5165  5.95027
13.5355  4.16461
13.5545  2.77637
13.5735  1.76754
13.5925  1.12816
13.6115  0.0247205
13.6305  -0.890519
13.6494  -1.12671
13.6684  -1.38779
13.6874  -1.9633
13.7064  -2.5164
13.7254  -2.857
13.7444  -2.63568
13.7634  -2.30764
13.7823  -1.54585
13.8013  -0.763455
13.8203  -0.126851
13.8393  0.59703
13.8583  1.56238
13.8773  2.49794
13.8963  3.77738
13.9152  4.91659
13.9342  5.86048
13.9532  6.59292
13.9722  7.71458
13.9912  9.07932
14.0102  10.3342
14.0292  11.4068
14.0481  12.2175
14.0671  13.2058
14.0861  14.0722
14.1051  14.9516
14.1241  15.0717
14.1431  15.4201
14.1621  15.3745
14.1811  15.0599
14.2  14.2627
14.219  13.195
14.238  11.8759
14.257  10.3749
14.276  9.10318
14.295  7.92174
14.314  6.78657
14.3329  5.51684
14.3519  4.66661
14.3709  3.89283
14.3899  2.81228
14.4089  2.07744
14.4279  1.85502
14.4469  1.89491
14.4658  1.62478
14.4848  1.11182
14.5038  0.245701
14.5228  -0.0486519
14.5418  -0.228159
14.5608  -0.253003
14.5798  -0.379416
14.5987  -0.0762724
14.6177  -0.013606
14.6367  -0.325239
14.6557  -0.533911
14.6747  -0.511314
14.6937  -0.605615
14.7127  -0.467992
14.7317  -0.25823
14.7506  -0.127346
14.7696  -0.237592
14.7886  -0.452549
14.8076  -0.395693
14.8266  -0.736952
14.8456  -0.75268
14.8646  -0.64851
14.8835  -0.137139
14.9025  0.0105658
14.9215  0.244838
14.9405  0.239247
14.9595  0.106955
14.9785  0.0186088
14.9975  0.0882033
15.0164  0.376469
15.0354  0.680009
15.0544  0.654091
15.0734  0.847506
15.0924  0.813478
15.1114  1.10589
15.1304  0.862031
15.1493  0.66111
15.1683  0.685198
15.1873  1.20738
15.2063  1.40934
15.2253  1.22324
15.2443  0.868525
15.2633  0.366297
15.2823  0.39145
15.3012  0.742514
15.3202  0.522461
15.3392  0.446017
15.3582  0.460104
15.3772  0.0832696
15.3962  -0.104884
15.4152  -0.219175
15.4341  -0.157329
15.4531  0.229125
15.4721  0.470108
15.4911  0.333788
15.5101  0.232374
15.5291  0.246057
15.5481  0.377561
15.567  0.483767
15.586  0.654088
15.605  0.842961
15.624  0.502726
15.643  0.296401
15.662  0.57012
15.681  0.619304
15.6999  0.690032
15.7189  0.59355
15.7379  0.674068
15.7569  0.731875
15.7759  1.08796
15.7949  1.74551
15.8139  2.14872
15.8329  2.32321
15.8518  2.21384
15.8708  2.71337
15.8898  3.32503
15.9088  4.36886
15.9278  5.64902
15.9468  7.3157
15.9658  8.47902
15.9847  9.86976
16.0037  11.569
16.0227  13.4961
16.0417  15.7129
16.0607  18.2128
16.0797  20.676
16.0987  23.5197
16.1176  26.1709
16.1366  29.1454
16.1556  31.7795
16.1746  34.5917
16.1936  37.0766
16.2126  38.2487
16.2316  39.32
16.2505  39.7348
16.2695  39.4536
16.2885  38.8452
16.3075  37.5448
16.3265  36.1378
16.3455  33.9528
16.3645  32.3608
16.3834  30.3761
16.4024  28.6529
16.4214  26.7581
16.4404  25.3864
16.4594  24.4532
16.4784  23.76
16.4974  23.9735
16.5164  24.728
16.5353  26.346
16.5543  29.0197
16.5733  31.4502
16.5923  34.3149
16.6113  36.8297
16.6303  38.5878
16.6493  40.4326
16.6682  41.5429
16.6872  43.091
16.7062  42.8225
16.7252  42.2143
16.7442  40.3729
16.7632  37.2035
16.7822  32.6442
16.8011  27.5331
16.8201  23.076
16.8391  19.0906
16.8581  15.0828
16.8771  12.3213
16.8961  10.2995
16.9151  8.7939
16.934  7.29518
16.953  6.10236
16.972  5.55272
16.991  5.14362
17.01  4.52249
17.029  4.04627
17.048  3.33382
17.067  2.93928
17.0859  2.45975
17.1049  2.2872
17.1239  1.92501
17.1429  1.56354
17.1619  0.925702
17.1809  0.537279
17.1999  0.388634
17.2188  0.550939
17.2378  0.346524
17.2568  -0.573992
17.2758  -1.10692
17.2948  -1.24058
17.3138  -1.58559
17.3328  -1.43053
17.3517  -1.36835
17.3707  -1.04329
17.3897  -1.14036
17.4087  -1.144
17.4277  -0.952067
17.4467  -0.955184
17.4657  -0.450595
17.4846  -0.0370493
17.5036  0.441683
17.5226  0.904543
17.5416  0.91921
17.5606  1.05741
17.5796  1.23908
17.5986  1.98846
17.6176  2.70878
17.6365  3.4973
17.6555  4.50015
17.6745  5.6796
17.6935  7.3817
17.7125  9.18686
17.7315  11.4433
17.7505  14.6963
17.7694  18.991
17.7884  23.9021
17.8074  29.8046
17.8264  36.9177
17.8454  45.3723
17.8644  53.9758
17.8834  61.5399
17.9023  67.6261
17.9213  72.4663
17.9403  75.7562
17.9593  78.8661
17.9783  81.7903
17.9973  85.0552
18.0163  88.733
18.0352  93.4195
18.0542  98.6787
18.0732  104.134
18.0922  109.637
18.1112  115.586
18.1302  121.407
18.1492  126.835
18.1682  129.788
18.1871  129.42
18.2061  125.28
18.2251  118.102
18.2441  109.19
18.2631  99.4033
18.2821  89.9649
18.3011  80.903
18.32  72.9828
18.339  65.8252
18.358  60.0314
18.377  55.3523
18.396  52.0655
18.415  49.0311
18.434  46.6855
18.4529  44.0239
18.4719  40.7179
18.4909  37.5177
18.5099  34.5679
18.5289  31.5708
18.5479  28.5763
18.5669  25.5339
18.5858  22.9286
18.6048  20.644
18.6238  18.2149
18.6428  16.3164
18.6618  14.5451
18.6808  13.1697
18.6998  11.975
18.7188  11.2416
18.7377  10.7486
18.7567  10.5668
18.7757  9.94853
18.7947  9.52902
18.8137  9.06383
18.8327  8.70953
18.8517  8.43707
18.8706  8.05289
18.8896  7.8619
18.9086  7.62101
18.9276  7.69022
18.9466  8.00452
18.9656  8.62122
18.9846  8.84901
19.0035  8.87941
19.0225  9.01914
19.0415  9.64023
19.0605  10.4785
19.0795  11.209
19.0985  11.1602
19.1175  10.9512
19.1364  11.0647
19.1554  11.8238
19.1744  12.2183
19.1934  12.1202
19.2124  12.0835
19.2314  11.8068
19.2504  11.3969
19.2694  10.3882
19.2883  9.54232
19.3073  8.68867
19.3263  8.15348
19.3453  7.44508
19.3643  6.39165
19.3833  5.26341
19.4023  4.16243
19.4212  3.0497
19.4402  2.13861
19.4592  1.74726
19.4782  1.37927
19.4972  0.703358
19.5162  0.241179
19.5352  0.0699344
19.5541  0.0959433
19.5731  0.0633452
19.5921  -0.173272
19.6111  -0.276738
19.6301  0.0923202
19.6491  0.706361
19.6681  1.63413
19.687  2.70786
19.706  3.86885
19.725  5.62503
19.744  7.61851
19.763  9.84906
19.782  11.9157
19.801  14.3047
19.82  17.0382
19.8389  19.4932
19.8579  21.748
19.8769  23.7979
19.8959  25.7568
19.9149  27.4158
19.9339  28.2812
19.9529  28.2554
19.9718  27.9477
19.9908  27.7302
20.0098  27.816
20.0288  28.2404
20.0478  29.4414
20.0668  31.2739
20.0858  33.2276
20.1047  35.2586
20.1237  36.9808
20.1427  38.3864
20.1617  39.8116
20.1807  40.6157
20.1997  40.9473
20.2187  40.6714
20.2376  39.9201
20.2566  38.9318
20.2756  37.3445
20.2946  35.7616
20.3136  34.2823
20.3326  33.9707
20.3516  33.4849
20.3706  32.4886
20.3895  30.9664
20.4085  30.2304
20.4275  29.4325
20.4465  28.744
20.4655  27.9542
20.4845  26.9956
20.5035  25.5826
20.5224  24.5434
20.5414  23.8021
20.5604  23.2423
20.5794  22.3214
20.5984  21.2666
20.6174  20.2502
20.6364  19.3014
20.6553  18.372
20.6743  17.4668
20.6933  16.8914
20.7123  16.3414
20.7313  15.6538
20.7503  15.0133
20.7693  14.3055
20.7882  13.4908
20.8072  13.3527
20.8262  13.3325
20.8452  13.4176
20.8642  13.078
20.8832  12.5963
20.9022  12.6356
20.9212  12.6652
20.9401  12.3593
20.9591  11.853
20.9781  11.6443
20.9971  11.6847
21.0161  11.5913
21.0351  11.7922
21.0541  11.5858
21.073  11.343
21.092  11.2605
21.111  11.1229
21.13  10.9819
21.149  10.8532
21.168  10.551
21.187  9.95358
21.2059  9.17143
21.2249  8.43017
21.2439  7.94301
21.2629  7.49725
21.2819  7.34691
21.3009  6.80874
21.3199  6.20977
21.3388  5.61844
21.3578  5.01601
21.3768  4.09675
21.3958  3.57655
21.4148  2.98686
21.4338  2.58318
21.4528  1.88747
21.4717  1.58959
21.4907  1.31283
21.5097  1.06719
21.5287  0.786252
21.5477  0.675917
21.5667  0.568875
21.5857  0.295331
21.6047  -0.0100856
21.6236  -0.114885
21.6426  0.0360438
21.6616  -0.0679965
21.6806  -0.119554
21.6996  -0.28293
21.7186  -0.207836
21.7376  -0.461897
21.7565  -0.397711
21.7755  -0.430328
21.7945  -0.221721
21.8135  -0.436067
21.8325  -0.523444
21.8515  -0.535489
21.8705  -0.515957
21.8894  -0.421669
21.9084  -0.141644
21.9274  0.0842545
21.9464  0.213382
21.9654  0.347195
21.9844  0.574775
22.0034  0.921448
22.0223  1.33542
22.0413  1.38639
22.0603  1.49651
22.0793  1.6315
22.0983  1.81995
22.1173  1.7138
22.1363  1.88117
22.1553  1.75623
22.1742  1.53323
22.1932  1.38721
22.2122  1.43647
22.2312  1.44762
22.2502  1.40063
22.2692  1.70051
22.2882  1.9583
22.3071  2.3777
22.3261  2.80214
22.3451  3.11555
22.3641  3.10536
22.3831  2.96023
22.4021  2.83935
22.4211  2.90708
22.44  3.02592
22.459  3.13211
22.478  3.22223
22.497  3.06536
22.516  2.77604
22.535  2.57304
22.554  2.53606
22.5729  2.63992
22.5919  2.47729
22.6109  2.31913
22.6299  2.07193
22.6489  1.73129
22.6679  1.35946
22.6869  1.1014
22.7059  1.08956
22.7248  1.18755
22.7438  1.4094
22.7628  1.5487
22.7818  1.39245
22.8008  1.28048
22.8198  1.31974
22.8388  1.40083
22.8577  1.48665
22.8767  1.29293
22.8957  1.07216
22.9147  0.714205
22.9337  0.526111
22.9527  0.323018
22.9717  0.192004
22.9906  -0.151751
23.0096  -0.141489
23.0286  -0.342304
23.0476  -0.328947
23.0666  -0.263594
23.0856  -0.0633301
23.1046  -0.0145783
23.1235  -0.00223545
23.1425  -0.0676697
23.1615  -0.00444994
23.1805  -0.0689345
23.1995  0.0276419
23.2185  0.0470879
23.2375  0.0366839
23.2565  0.0446876
23.2754  0.379923
23.2944  0.311621
23.3134  0.258416
23.3324  0.0325046
23.3514  0.293333
23.3704  0.384607
23.3894  0.261077
23.4083  0.0639966
23.4273  -0.0607044
23.4463  0.0274624
23.4653  0.0280264
23.4843  0.204252
23.5033  0.179852
23.5223  0.180858
23.5412  0.166553
23.5602  0.245498
23.5792  0.529359
23.5982  0.611408
23.6172  0.49141
23.6362  0.393622
23.6552  0.157687
23.6741  0.120769
23.6931  -0.0943752
23.7121  -0.096994
23.7311  -0.133407
23.7501  0.118822
23.7691  0.349002
23.7881  0.5418
23.8071  0.459561
23.826  0.491913
23.845  0.679075
23.864  0.799077
23.883  0.869539
23.902  0.470151
23.921  0.420709
23.94  0.234829
23.9589  0.308657
23.9779  0.0453305
23.9969  -0.1771
24.0159  -0.237429
24.0349  -0.159134
24.0539  0.0582187
24.0729  -0.0108329
24.0918  0.0505972
24.1108  0.0793871
24.1298  0.214874
24.1488  0.0370296
24.1678  -0.0336225
24.1868  -0.0595622
24.2058  -0.00866324
24.2247  -0.16404
24.2437  0.115572