File: data/processed/Run1_XRD/19_ReMoB2_50p0GPa_200psi_release_P1_C4_D1w_132.dat
2.82731  0.45527
2.84629  0.642372
2.86528  1.00021
2.88427  0.554736
2.90325  0.563688
2.92224  0.498342
2.94122  -0.170894
2.96021  -0.341994
2.9792  0.698865
2.99818  1.96164
3.01717  2.17677
3.03616  1.41206
3.05514  0.49862
3.07413  0.0668981
3.09311  0.349568
3.1121  1.11476
3.13109  1.37934
3.15007  1.2895
3.16906  0.988968
3.18805  0.83169
3.20703  0.920029
3.22602  1.4094
3.245  1.74594
3.26399  1.67351
3.28298  1.62645
3.30196  1.51296
3.32095  2.63355
3.33993  3.33625
3.35892  4.29146
3.37791  5.45985
3.39689  6.58309
3.41588  9.06579
3.43487  12.3183
3.45385  17.688
3.47284  24.6645
3.49182  31.8198
3.51081  36.3762
3.5298  35.7326
3.54878  29.9145
3.56777  21.6084
3.58676  14.4627
3.60574  9.52261
3.62473  7.3441
3.64371  5.46856
3.6627  3.54721
3.68169  2.26591
3.70067  1.72591
3.71966  2.35214
3.73864  2.43953
3.75763  2.09637
3.77662  1.6139
3.7956  1.73207
3.81459  1.47785
3.83358  1.83079
3.85256  1.68326
3.87155  2.05088
3.89053  1.51502
3.90952  1.49945
3.92851  1.60026
3.94749  1.40501
3.96648  1.62737
3.98547  1.60912
4.00445  1.32765
4.02344  1.14549
4.04242  0.00127613
4.06141  0.117993
4.0804  0.413754
4.09938  0.883675
4.11837  0.475955
4.13735  0.211361
4.15634  0.474829
4.17533  0.317552
4.19431  0.0895119
4.2133  -0.148942
4.23229  0.143915
4.25127  0.712085
4.27026  1.0085
4.28924  0.870019
4.30823  0.855883
4.32722  1.15953
4.3462  0.464612
4.36519  0.543409
4.38418  0.439535
4.40316  0.722535
4.42215  0.389368
4.44113  -0.0197453
4.46012  -0.162983
4.47911  0.107902
4.49809  0.0225955
4.51708  0.0913338
4.53606  0.0659615
4.55505  0.452386
4.57404  0.407598
4.59302  0.676918
4.61201  0.981931
4.631  0.74241
4.64998  0.826481
4.66897  0.691823
4.68795  1.28792
4.70694  1.6672
4.72593  1.43096
4.74491  1.09753
4.7639  0.854735
4.78289  0.689774
4.80187  1.02306
4.82086  0.472954
4.83984  0.707885
4.85883  0.811311
4.87782  1.41031
4.8968  1.50228
4.91579  1.08915
4.93478  0.771057
4.95376  0.643281
4.97275  0.646059
4.99173  0.386228
5.01072  -0.175528
5.02971  -0.113446
5.04869  -0.384461
5.06768  -0.138508
5.08666  0.119637
5.10565  0.772398
5.12464  1.22061
5.14362  0.762058
5.16261  0.484083
5.1816  0.267904
5.20058  0.290249
5.21957  0.276809
5.23855  0.541986
5.25754  0.673994
5.27653  0.846344
5.29551  0.932426
5.3145  0.525094
5.33349  0.236061
5.35247  0.279779
5.37146  0.546981
5.39044  1.02107
5.40943  1.34089
5.42842  0.841035
5.4474  0.530594
5.46639  -0.00406417
5.48537  0.316719
5.50436  0.0433813
5.52335  0.109807
5.54233  -0.00127381
5.56132  -0.163866
5.58031  0.210021
5.59929  0.905248
5.61828  1.37781
5.63726  0.789519
5.65625  0.203497
5.67524  0.336347
5.69422  0.589604
5.71321  0.776569
5.7322  1.04785
5.75118  1.39491
5.77017  1.22625
5.78915  1.19402
5.80814  0.861358
5.82713  0.637836
5.84611  0.281983
5.8651  0.515218
5.88408  0.63021
5.90307  0.930596
5.92206  1.42265
5.94104  2.33369
5.96003  3.0747
5.97902  4.78405
5.998  5.47499
6.01699  4.87664
6.03597  3.48863
6.05496  2.0764
6.07395  1.75545
6.09293  1.51141
6.11192  0.87218
6.13091  0.690615
6.14989  0.813011
6.16888  0.965387
6.18786  0.175483
6.20685  -0.0488113
6.22584  -0.0828406
6.24482  -0.0926178
6.26381  -0.150788
6.28279  0.16192
6.30178  0.773084
6.32077  1.1207
6.33975  1.6871
6.35874  1.96934
6.37773  2.80205
6.39671  3.6801
6.4157  4.72293
6.43468  5.25455
6.45367  5.47783
6.47266  5.61994
6.49164  5.37517
6.51063  4.05007
6.52962  3.05485
6.5486  2.16608
6.56759  2.53963
6.58657  3.19537
6.60556  3.99057
6.62455  5.84742
6.64353  8.52493
6.66252  12.8845
6.6815  18.8407
6.70049  26.5848
6.71948  35.0443
6.73846  42.5227
6.75745  48.5903
6.77644  51.0515
6.79542  50.7244
6.81441  48.3796
6.83339  45.3287
6.85238  42.6386
6.87137  41.5042
6.89035  44.0237
6.90934  51.5908
6.92833  65.3666
6.94731  86.8202
6.9663  117.208
6.98528  152.654
7.00427  192.13
7.02326  221.35
7.04224  233.028
7.06123  226.242
7.08021  202.787
7.0992  169.452
7.11819  135.21
7.13717  102.086
7.15616  76.1927
7.17515  57.9437
7.19413  44.0076
7.21312  34.6229
7.2321  27.5293
7.25109  22.1035
7.27008  17.4304
7.28906  13.4556
7.30805  11.2015
7.32704  10.0634
7.34602  8.85364
7.36501  6.79898
7.38399  5.25246
7.40298  4.46653
7.42197  3.76497
7.44095  3.2768
7.45994  2.70645
7.47892  2.49439
7.49791  2.14745
7.5169  1.62007
7.53588  1.22972
7.55487  0.701136
7.57386  0.325475
7.59284  0.403332
7.61183  0.382461
7.63081  0.0382809
7.6498  -0.0107063
7.66879  -0.272003
7.68777  0.0642952
7.70676  -0.0345675
7.72575  0.155898
7.74473  0.196691
7.76372  0.405874
7.7827  0.406715
7.80169  0.448947
7.82068  0.318342
7.83966  0.28121
7.85865  0.496013
7.87764  0.447596
7.89662  0.295613
7.91561  0.0252836
7.93459  -0.22171
7.95358  0.205707
7.97257  0.499391
7.99155  0.552238
8.01054  0.157508
8.02952  0.0676482
8.04851  0.17616
8.0675  0.303034
8.08648  0.126801
8.10547  0.0587885
8.12446  -0.0964474
8.14344  -0.135196
8.16243  -0.0788434
8.18141  0.109371
8.2004  -0.116897
8.21939  0.00261118
8.23837  0.0526543
8.25736  0.419448
8.27635  0.613256
8.29533  0.61137
8.31432  0.72413
8.3333  0.981547
8.35229  0.999413
8.37128  0.801468
8.39026  0.353013
8.40925  0.187043
8.42823  0.423074
8.44722  0.775723
8.46621  1.02263
8.48519  0.839732
8.50418  0.355422
8.52317  0.326844
8.54215  0.0295293
8.56114  0.357215
8.58012  0.610085
8.59911  0.820414
8.6181  0.142188
8.63708  -0.510446
8.65607  -0.297804
8.67506  0.21297
8.69404  0.459205
8.71303  -0.0758517
8.73201  -0.531157
8.751  -0.665736
8.76999  -0.44043
8.78897  -0.787379
8.80796  -0.260769
8.82694  0.130581
8.84593  0.647978
8.86492  0.874666
8.8839  0.923492
8.90289  1.27484
8.92188  2.07232
8.94086  3.19832
8.95985  4.10923
8.97883  4.62156
8.99782  6.47322
9.01681  9.56165
9.03579  13.7036
9.05478  19.0532
9.07377  26.5538
9.09275  37.3803
9.11174  53.7043
9.13072  82.3744
9.14971  133.103
9.1687  211.282
9.18768  340.8
9.20667  510.928
9.22565  691.435
9.24464  852.765
9.26363  987.867
9.28261  1053.04
9.3016  1074.22
9.32059  1012.58
9.33957  915.053
9.35856  787.468
9.37754  656.765
9.39653  566.353
9.41552  508.322
9.4345  484.88
9.45349  490.336
9.47248  512.555
9.49146  536.921
9.51045  565.937
9.52943  606.112
9.54842  654.753
9.56741  697.339
9.58639  705.83
9.60538  683.225
9.62436  634.303
9.64335  578.421
9.66234  516.214
9.68132  457.754
9.70031  409.847
9.7193  365.193
9.73828  324.766
9.75727  290.318
9.77625  261.129
9.79524  237.261
9.81423  216.616
9.83321  197.582
9.8522  179.138
9.87119  158.977
9.89017  139.404
9.90916  120.108
9.92814  99.8421
9.94713  81.2329
9.96612  65.3562
9.9851  49.8432
10.0041  39.2732
10.0231  28.7589
10.0421  21.4296
10.061  15.2458
10.08  10.8446
10.099  7.76123
10.118  5.43967
10.137  3.47364
10.156  1.78773
10.175  0.111857
10.194  -1.13117
10.2129  -1.94914
10.2319  -2.25083
10.2509  -2.57599
10.2699  -2.39525
10.2889  -1.89589
10.3079  -1.0899
10.3269  -0.681603
10.3458  -0.437477
10.3648  -0.495215
10.3838  -0.671694
10.4028  -0.954442
10.4218  -1.00218
10.4408  -0.679592
10.4598  0.260781
10.4787  1.37522
10.4977  3.501
10.5167  5.57872
10.5357  8.3585
10.5547  10.7928
10.5737  13.4777
10.5927  15.4043
10.6116  17.0886
10.6306  18.421
10.6496  19.4537
10.6686  20.5381
10.6876  20.9398
10.7066  21.4075
10.7256  22.4388
10.7446  24.0655
10.7635  26.0123
10.7825  27.9057
10.8015  30.1452
10.8205  32.1695
10.8395  34.0353
10.8585  35.6376
10.8775  37.8456
10.8964  40.4019
10.9154  43.5809
10.9344  46.3611
10.9534  49.3402
10.9724  51.946
10.9914  54.5606
11.0104  57.0001
11.0293  59.2575
11.0483  61.7482
11.0673  63.8151
11.0863  65.2343
11.1053  65.3347
11.1243  64.1748
11.1433  61.3826
11.1622  58.0659
11.1812  54.0054
11.2002  49.988
11.2192  45.2153
11.2382  40.4739
11.2572  36.5782
11.2762  32.5252
11.2951  28.3528
11.3141  24.3373
11.3331  20.1732
11.3521  16.8695
11.3711  13.8042
11.3901  10.9097
11.4091  8.02309
11.4281  5.12144
11.447  2.99879
11.466  1.05884
11.485  -0.842372
11.504  -2.49027
11.523  -2.70618
11.542  -1.86979
11.561  -0.141177
11.5799  1.79058
11.5989  4.08723
11.6179  6.09781
11.6369  8.37879
11.6559  9.91342
11.6749  11.5186
11.6939  12.1819
11.7128  14.0196
11.7318  16.4816
11.7508  19.1781
11.7698  23.274
11.7888  27.2098
11.8078  33.9156
11.8268  41.1599
11.8457  51.0112
11.8647  63.7122
11.8837  80.0615
11.9027  103.637
11.9217  132.707
11.9407  175.818
11.9597  229.252
11.9787  299.308
11.9976  386.175
12.0166  479.688
12.0356  581.16
12.0546  668.714
12.0736  736.05
12.0926  770.69
12.1116  775.848
12.1305  750.39
12.1495  709.828
12.1685  653.257
12.1875  586.325
12.2065  517.362
12.2255  441.867
12.2445  369.3
12.2634  302.094
12.2824  245.087
12.3014  195.934
12.3204  158.983
12.3394  129.228
12.3584  109.187
12.3774  94.6445
12.3963  83.0648
12.4153  74.7848
12.4343  67.286
12.4533  61.5606
12.4723  55.8836
12.4913  50.7634
12.5103  46.667
12.5293  43.7565
12.5482  42.1393
12.5672  41.0738
12.5862  40.4204
12.6052  41.1745
12.6242  41.773
12.6432  41.8991
12.6622  41.1984
12.6811  41.2329
12.7001  42.749
12.7191  43.5095
12.7381  44.8169
12.7571  45.5065
12.7761  45.843
12.7951  46.623
12.814  46.7159
12.833  47.7323
12.852  47.4647
12.871  47.4146
12.89  46.0777
12.909  45.4217
12.928  44.7484
12.9469  44.195
12.9659  43.5107
12.9849  42.7086
13.0039  42.7882
13.0229  42.6737
13.0419  43.4473
13.0609  43.3081
13.0799  44.1538
13.0988  44.6947
13.1178  45.753
13.1368  46.9872
13.1558  47.2626
13.1748  47.3613
13.1938  46.2371
13.2128  45.0638
13.2317  43.4357
13.2507  41.4078
13.2697  38.8089
13.2887  36.1009
13.3077  33.1501
13.3267  29.9592
13.3457  26.5937
13.3646  23.4257
13.3836  20.7657
13.4026  18.5057
13.4216  16.8625
13.4406  14.968
13.4596  13.2413
13.4786  11.714
13.4975  10.1844
13.5165  8.63588
13.5355  6.80262
13.5545  5.00645
13.5735  3.59311
13.5925  2.13027
13.6115  0.607708
13.6305  -0.543738
13.6494  -1.33294
13.6684  -1.79047
13.6874  -2.42817
13.7064  -2.96393
13.7254  -3.3261
13.7444  -3.12581
13.7634  -2.82306
13.7823  -2.51561
13.8013  -2.30692
13.8203  -1.68743
13.8393  -0.819304
13.8583  0.297425
13.8773  1.53464
13.8963  2.97859
13.9152  4.73755
13.9342  6.32873
13.9532  8.14545
13.9722  10.8235
13.9912  13.7261
14.0102  16.3556
14.0292  18.4718
14.0481  21.016
14.0671  22.7558
14.0861  23.9178
14.1051  24.3889
14.1241  24.1105
14.1431  23.3425
14.1621  21.311
14.1811  18.7604
14.2  16.019
14.219  13.6252
14.238  11.448
14.257  9.40053
14.276  7.93298
14.295  6.65686
14.314  5.44453
14.3329  4.45736
14.3519  3.56165
14.3709  2.84524
14.3899  1.92008
14.4089  1.19681
14.4279  0.933849
14.4469  0.628853
14.4658  0.273934
14.4848  0.00520004
14.5038  -0.163207
14.5228  -0.238528
14.5418  -0.0559669
14.5608  -0.251104
14.5798  -0.512905
14.5987  -0.781445
14.6177  -0.932006
14.6367  -0.836269
14.6557  -0.791039
14.6747  -0.770079
14.6937  -0.793661
14.7127  -0.430662
14.7317  -0.487909
14.7506  -0.308304
14.7696  -0.908313
14.7886  -0.603859
14.8076  -0.562943
14.8266  -0.121738
14.8456  -0.144336
14.8646  0.206911
14.8835  0.302009
14.9025  0.0925419
14.9215  0.00380647
14.9405  -0.182981
14.9595  -0.164063
14.9785  -0.0844642
14.9975  0.256286
15.0164  0.533077
15.0354  0.812442
15.0544  0.891084
15.0734  1.07265
15.0924  1.00866
15.1114  0.994332
15.1304  1.02546
15.1493  0.797808
15.1683  0.983573
15.1873  1.14884
15.2063  1.55102
15.2253  1.34034
15.2443  0.832502
15.2633  0.305992
15.2823  0.023081
15.3012  0.660216
15.3202  0.657246
15.3392  0.639789
15.3582  0.338879
15.3772  0.528764
15.3962  0.77098
15.4152  0.802542
15.4341  0.714303
15.4531  0.700501
15.4721  0.592861
15.4911  0.465671
15.5101  0.0642193
15.5291  -0.0499881
15.5481  0.0102974
15.567  0.534361
15.586  1.25415
15.605  1.37208
15.624  1.00089
15.643  0.695013
15.662  0.762425
15.681  0.724039
15.6999  1.0621
15.7189  1.28635
15.7379  1.85941
15.7569  2.58492
15.7759  2.55449
15.7949  2.6037
15.8139  2.72739
15.8329  2.80181
15.8518  3.07657
15.8708  4.08904
15.8898  5.41929
15.9088  6.04426
15.9278  6.65604
15.9468  7.43485
15.9658  8.41672
15.9847  9.60536
16.0037  10.7385
16.0227  11.975
16.0417  13.1226
16.0607  14.2474
16.0797  15.1043
16.0987  15.4628
16.1176  15.8821
16.1366  16.4942
16.1556  17.3108
16.1746  17.6598
16.1936  18.0348
16.2126  18.4785
16.2316  18.6388
16.2505  18.3351
16.2695  18.2393
16.2885  18.0581
16.3075  18.1092
16.3265  18.0393
16.3455  18.208
16.3645  18.582
16.3834  19.1579
16.4024  20.5181
16.4214  21.774
16.4404  24.063
16.4594  26.9195
16.4784  29.9504
16.4974  34.6297
16.5164  40.0865
16.5353  46.409
16.5543  53.0979
16.5733  57.812
16.5923  61.4629
16.6113  62.7024
16.6303  62.9617
16.6493  60.4839
16.6682  56.0438
16.6872  50.7247
16.7062  44.7054
16.7252  39.7556
16.7442  34.9815
16.7632  31.1282
16.7822  27.8546
16.8011  24.1385
16.8201  20.7102
16.8391  17.6893
16.8581  14.9684
16.8771  12.822
16.8961  10.5321
16.9151  8.47171
16.934  7.15504
16.953  6.32717
16.972  5.26365
16.991  3.94707
17.01  2.70247
17.029  1.86021
17.048  1.45181
17.067  1.47135
17.0859  1.1728
17.1049  0.857335
17.1239  0.0565217
17.1429  -0.248388
17.1619  -0.507254
17.1809  -0.740957
17.1999  -0.746778
17.2188  -0.498733
17.2378  -0.186247
17.2568  -0.2439
17.2758  -0.550855
17.2948  -0.850159
17.3138  -1.07156
17.3328  -0.911602
17.3517  -1.04696
17.3707  -0.961151
17.3897  -0.887015
17.4087  -0.473767
17.4277  -0.413713
17.4467  -0.0178041
17.4657  0.564087
17.4846  1.31622
17.5036  2.07409
17.5226  3.07516
17.5416  3.93203
17.5606  4.49044
17.5796  5.37141
17.5986  7.22413
17.6176  9.48818
17.6365  11.6206
17.6555  14.0922
17.6745  17.8543
17.6935  22.7487
17.7125  28.6274
17.7315  35.6297
17.7505  43.563
17.7694  52.5622
17.7884  63.1474
17.8074  75.0118
17.8264  87.6232
17.8454  98.8037
17.8644  109.483
17.8834  117.072
17.9023  122.221
17.9213  124.414
17.9403  124.726
17.9593  124.002
17.9783  123.036
17.9973  123.264
18.0163  123.141
18.0352  125.338
18.0542  127.458
18.0732  130.092
18.0922  131.472
18.1112  129.797
18.1302  124.393
18.1492  114.962
18.1682  103.886
18.1871  92.3416
18.2061  81.5798
18.2251  71.8444
18.2441  63.9043
18.2631  57.0575
18.2821  51.9908
18.3011  46.9607
18.32  43.0543
18.339  39.0508
18.358  36.2386
18.377  33.0387
18.396  30.6443
18.415  27.9138
18.434  25.3852
18.4529  22.4232
18.4719  20.0552
18.4909  17.8866
18.5099  16.1821
18.5289  14.3866
18.5479  13.4399
18.5669  12.2727
18.5858  11.0898
18.6048  9.85149
18.6238  8.55064
18.6428  8.11188
18.6618  8.02973
18.6808  7.60062
18.6998  7.11158
18.7188  6.64795
18.7377  6.52498
18.7567  6.98429
18.7757  7.02664
18.7947  7.19818
18.8137  7.48303
18.8327  8.07945
18.8517  9.00368
18.8706  9.9199
18.8896  11.5903
18.9086  13.3925
18.9276  15.3145
18.9466  17.2109
18.9656  19.9503
18.9846  23.0579
19.0035  25.9343
19.0225  28.4296
19.0415  30.4994
19.0605  32.1317
19.0795  32.4578
19.0985  31.8394
19.1175  29.9536
19.1364  27.2567
19.1554  24.3892
19.1744  21.571
19.1934  18.4456
19.2124  15.7048
19.2314  13.1135
19.2504  10.7018
19.2694  8.48108
19.2883  6.80347
19.3073  5.84168
19.3263  4.8451
19.3453  3.72158
19.3643  2.7311
19.3833  1.74609
19.4023  0.732846
19.4212  0.0990024
19.4402  0.196498
19.4592  0.112697
19.4782  0.184037
19.4972  0.112189
19.5162  0.256662
19.5352  0.517297
19.5541  1.25403
19.5731  2.4637
19.5921  3.92589
19.6111  5.67594
19.6301  7.99162
19.6491  10.9536
19.6681  14.5631
19.687  18.5465
19.706  22.7792
19.725  26.7796
19.744  29.9325
19.763  32.0198
19.782  33.738
19.801  34.8417
19.82  35.6314
19.8389  35.2086
19.8579  34.7594
19.8769  34.2733
19.8959  33.7466
19.9149  33.2886
19.9339  32.8164
19.9529  33.3733
19.9718  35.0439
19.9908  37.4792
20.0098  40.0345
20.0288  42.1856
20.0478  44.4245
20.0668  46.2544
20.0858  47.3384
20.1047  47.747
20.1237  46.7934
20.1427  45.1871
20.1617  44.007
20.1807  42.6741
20.1997  40.7533
20.2187  39.2126
20.2376  37.5745
20.2566  35.9422
20.2756  34.0654
20.2946  31.9789
20.3136  29.818
20.3326  28.2438
20.3516  26.8219
20.3706  25.263
20.3895  23.9423
20.4085  22.6415
20.4275  21.1003
20.4465  19.6629
20.4655  18.515
20.4845  17.1859
20.5035  16.2827
20.5224  15.1931
20.5414  14.118
20.5604  13.1197
20.5794  12.5525
20.5984  12.4323
20.6174  11.9683
20.6364  11.6744
20.6553  11.126
20.6743  10.8454
20.6933  10.4847
20.7123  10.5537
20.7313  10.4587
20.7503  10.3011
20.7693  9.79345
20.7882  9.41473
20.8072  9.37521
20.8262  9.52989
20.8452  9.79404
20.8642  10.1527
20.8832  10.4689
20.9022  10.4771
20.9212  10.2117
20.9401  9.81637
20.9591  10.0356
20.9781  10.2182
20.9971  10.1581
21.0161  9.81194
21.0351  9.91116
21.0541  9.83121
21.073  9.59953
21.092  9.5897
21.111  9.37214
21.13  9.07547
21.149  8.51297
21.168  8.39153
21.187  8.20606
21.2059  7.95118
21.2249  7.73329
21.2439  7.41831
21.2629  7.00988
21.2819  6.6346
21.3009  6.39421
21.3199  6.03063
21.3388  5.53363
21.3578  4.99434
21.3768  4.78589
21.3958  4.2066
21.4148  3.43994
21.4338  2.95948
21.4528  2.7152
21.4717  2.34559
21.4907  1.91859
21.5097  1.42739
21.5287  1.20216
21.5477  0.888792
21.5667  0.324251
21.5857  -0.194443
21.6047  -0.4275
21.6236  -0.42836
21.6426  -0.516393
21.6616  -0.627982
21.6806  -0.555304
21.6996  -0.656568
21.7186  -0.693831
21.7376  -0.676526
21.7565  -0.42396
21.7755  -0.0900729
21.7945  0.0608073
21.8135  0.0718439
21.8325  0.1653
21.8515  0.652394
21.8705  1.10345
21.8894  1.61799
21.9084  1.76437
21.9274  2.01187
21.9464  2.17523
21.9654  2.42369
21.9844  2.46516
22.0034  2.26305
22.0223  1.92718
22.0413  1.30203
22.0603  0.569756
22.0793  0.0873144
22.0983  -0.164852
22.1173  0.0795069
22.1363  0.29303
22.1553  0.489869
22.1742  1.34652
22.1932  2.57288
22.2122  4.07512
22.2312  5.14944
22.2502  6.27336
22.2692  6.31914
22.2882  5.58082
22.3071  4.46529
22.3261  3.69368
22.3451  3.40644
22.3641  3.49044
22.3831  3.79445
22.4021  4.23306
22.4211  4.4945
22.44  4.67025
22.459  4.82592
22.478  5.16972
22.497  5.17644
22.516  5.22062
22.535  5.03582
22.554  4.77145
22.5729  4.20326
22.5919  3.80723
22.6109  3.69757
22.6299  3.20668
22.6489  2.58586
22.6679  2.09703
22.6869  1.75018
22.7059  1.5812
22.7248  1.31181
22.7438  1.06145
22.7628  0.867233
22.7818  0.650085
22.8008  0.276708
22.8198  -0.00238595
22.8388  0.109016
22.8577  0.261903
22.8767  0.229998
22.8957  -0.00593412
22.9147  -0.10365
22.9337  -0.0637088
22.9527  -0.0708695
22.9717  -0.125004
22.9906  -0.0850419
23.0096  0.0672824
23.0286  -0.112974
23.0476  -0.237545
23.0666  -0.116123
23.0856  0.235268
23.1046  0.353164
23.1235  0.460341
23.1425  0.528601
23.1615  0.793671
23.1805  0.678606
23.1995  0.324428
23.2185  0.0828109
23.2375  0.19701
23.2565  0.130924
23.2754  -0.0355094
23.2944  -0.219724
23.3134  0.041167
23.3324  0.146791
23.3514  0.313694
23.3704  0.441229
23.3894  0.534469
23.4083  0.417546
23.4273  0.490605
23.4463  0.69842
23.4653  0.562216
23.4843  0.283412
23.5033  -0.101743
23.5223  0.0498217
23.5412  -0.0129889
23.5602  0.0838959
23.5792  0.190401
23.5982  0.41741
23.6172  0.381148
23.6362  0.375089
23.6552  0.344206
23.6741  0.406178
23.6931  0.29794
23.7121  0.351563
23.7311  0.224187
23.7501  0.194654
23.7691  0.224273
23.7881  0.347328
23.8071  0.306609
23.826  0.389132
23.845  0.209014
23.864  0.255343
23.883  0.132616
23.902  0.425819
23.921  0.566136
23.94  0.647975
23.9589  0.422427
23.9779  0.355348
23.9969  0.301789
24.0159  0.0823573
24.0349  -0.157697
24.0539  -0.175514
24.0729  -0.0907044
24.0918  -0.128725
24.1108  -0.0664007
24.1298  0.0859138
24.1488  0.293607
24.1678  0.260265
24.1868  0.0330107
24.2058  -0.30318
24.2247  -0.210302
24.2437  0.188208