File: data/processed/Run1_XRD/1_ReMoB2_0pGPa_0psi_Samp_P1_C4_D1w_024.dat
2.82731  0.304086
2.84629  0.585888
2.86528  1.26423
2.88427  1.82711
2.90325  2.20526
2.92224  1.84479
2.94122  1.43079
2.96021  1.01914
2.9792  1.14681
2.99818  1.08194
3.01717  1.25476
3.03616  1.80227
3.05514  2.08482
3.07413  1.80212
3.09311  1.63647
3.1121  1.50169
3.13109  1.80598
3.15007  1.88756
3.16906  2.30022
3.18805  1.71679
3.20703  1.82765
3.22602  1.61363
3.245  1.66556
3.26399  1.51501
3.28298  2.03703
3.30196  1.57455
3.32095  1.85805
3.33993  2.11524
3.35892  2.46304
3.37791  3.46014
3.39689  4.06309
3.41588  4.92412
3.43487  4.93347
3.45385  3.88844
3.47284  3.61892
3.49182  2.94119
3.51081  2.3166
3.5298  2.02165
3.54878  2.07258
3.56777  2.30141
3.58676  1.87876
3.60574  0.769806
3.62473  0.546055
3.64371  1.19813
3.6627  1.81636
3.68169  1.81581
3.70067  1.36297
3.71966  1.74281
3.73864  1.43167
3.75763  1.45644
3.77662  2.01565
3.7956  2.10022
3.81459  2.65198
3.83358  2.46496
3.85256  2.27251
3.87155  1.47081
3.89053  0.998986
3.90952  0.957831
3.92851  1.43287
3.94749  1.73969
3.96648  1.58211
3.98547  1.15457
4.00445  0.951355
4.02344  1.22931
4.04242  1.5035
4.06141  1.49202
4.0804  1.46013
4.09938  0.806021
4.11837  0.964056
4.13735  1.28277
4.15634  1.92429
4.17533  1.9009
4.19431  1.70459
4.2133  0.777497
4.23229  0.604072
4.25127  0.820154
4.27026  1.22065
4.28924  1.03411
4.30823  0.345988
4.32722  -0.0502525
4.3462  -0.0768284
4.36519  0.519344
4.38418  0.841649
4.40316  0.871236
4.42215  0.609
4.44113  0.68437
4.46012  0.201212
4.47911  -0.167022
4.49809  0.0085347
4.51708  0.313887
4.53606  0.397549
4.55505  0.347483
4.57404  0.626151
4.59302  0.793953
4.61201  0.510627
4.631  0.344176
4.64998  0.607507
4.66897  0.820943
4.68795  1.01566
4.70694  0.793465
4.72593  0.94516
4.74491  1.03487
4.7639  0.99864
4.78289  1.05493
4.80187  0.950594
4.82086  1.34014
4.83984  1.30612
4.85883  1.43441
4.87782  1.549
4.8968  1.96517
4.91579  1.89089
4.93478  1.07385
4.95376  0.0162602
4.97275  -0.257126
4.99173  0.436063
5.01072  0.78023
5.02971  1.61636
5.04869  1.46933
5.06768  1.55065
5.08666  1.88249
5.10565  2.02878
5.12464  2.37188
5.14362  1.47993
5.16261  1.18254
5.1816  1.20004
5.20058  1.583
5.21957  2.40168
5.23855  2.42624
5.25754  1.46815
5.27653  0.933146
5.29551  0.68913
5.3145  0.902173
5.33349  1.15561
5.35247  0.813304
5.37146  0.831753
5.39044  0.655526
5.40943  0.61653
5.42842  0.959971
5.4474  0.740366
5.46639  0.884057
5.48537  0.974852
5.50436  0.840028
5.52335  0.664674
5.54233  0.713573
5.56132  0.778144
5.58031  0.450385
5.59929  0.682185
5.61828  0.905377
5.63726  1.52006
5.65625  1.43826
5.67524  0.800871
5.69422  0.935377
5.71321  0.656824
5.7322  1.16112
5.75118  1.69874
5.77017  1.7543
5.78915  1.74593
5.80814  1.65929
5.82713  1.78334
5.84611  1.4903
5.8651  1.33832
5.88408  1.29086
5.90307  0.769792
5.92206  0.733564
5.94104  0.906056
5.96003  1.19352
5.97902  1.02866
5.998  0.82412
6.01699  0.47596
6.03597  0.169432
6.05496  -0.243055
6.07395  -0.0240024
6.09293  -0.127056
6.11192  -0.0886192
6.13091  0.404454
6.14989  0.459641
6.16888  0.572467
6.18786  0.568874
6.20685  0.353738
6.22584  0.308071
6.24482  0.660799
6.26381  1.41382
6.28279  1.55351
6.30178  1.59485
6.32077  1.66879
6.33975  1.45293
6.35874  1.15298
6.37773  1.40074
6.39671  1.9898
6.4157  3.01781
6.43468  4.02278
6.45367  4.74306
6.47266  3.82866
6.49164  2.62947
6.51063  1.4668
6.52962  1.27564
6.5486  1.11737
6.56759  0.869398
6.58657  0.799682
6.60556  0.699317
6.62455  0.711389
6.64353  0.783548
6.66252  0.78511
6.6815  1.36021
6.70049  2.11327
6.71948  3.02105
6.73846  4.05315
6.75745  6.1959
6.77644  8.64289
6.79542  11.2132
6.81441  14.2898
6.83339  16.1689
6.85238  14.9103
6.87137  11.0784
6.89035  7.26865
6.90934  4.09308
6.92833  2.20993
6.94731  1.16779
6.9663  0.862112
6.98528  1.08453
7.00427  0.961044
7.02326  0.874508
7.04224  0.499112
7.06123  0.729692
7.08021  0.575056
7.0992  0.617609
7.11819  0.354513
7.13717  0.307792
7.15616  0.0597838
7.17515  0.256735
7.19413  0.588071
7.21312  0.581041
7.2321  0.611431
7.25109  0.395642
7.27008  -0.0121105
7.28906  -0.0991841
7.30805  -0.110904
7.32704  0.224628
7.34602  0.280393
7.36501  0.735186
7.38399  0.752111
7.40298  1.05476
7.42197  1.17516
7.44095  0.948194
7.45994  0.541155
7.47892  0.349034
7.49791  0.698783
7.5169  1.1004
7.53588  1.07304
7.55487  1.02249
7.57386  0.810139
7.59284  0.97122
7.61183  1.1205
7.63081  0.696206
7.6498  0.342936
7.66879  0.00379918
7.68777  0.666428
7.70676  0.695756
7.72575  0.311216
7.74473  0.329268
7.76372  0.681293
7.7827  0.658223
7.80169  0.66437
7.82068  0.809269
7.83966  0.950309
7.85865  1.00427
7.87764  0.717251
7.89662  0.906215
7.91561  0.609671
7.93459  0.478556
7.95358  0.555279
7.97257  0.92147
7.99155  1.12502
8.01054  1.28337
8.02952  1.1624
8.04851  1.53917
8.0675  1.30185
8.08648  0.661146
8.10547  -0.00235911
8.12446  -0.0769631
8.14344  -0.0316292
8.16243  0.297001
8.18141  0.522206
8.2004  0.804319
8.21939  0.731852
8.23837  0.532461
8.25736  0.122816
8.27635  -0.0517716
8.29533  0.101582
8.31432  0.424346
8.3333  0.0940209
8.35229  0.0765368
8.37128  0.182098
8.39026  0.409361
8.40925  0.32384
8.42823  0.593655
8.44722  1.04905
8.46621  1.23494
8.48519  1.20084
8.50418  0.943821
8.52317  1.04444
8.54215  0.712662
8.56114  0.386158
8.58012  0.236144
8.59911  0.281806
8.6181  0.0361583
8.63708  -0.113521
8.65607  -0.122171
8.67506  0.0429638
8.69404  0.122471
8.71303  0.198452
8.73201  0.712832
8.751  0.923753
8.76999  0.807422
8.78897  0.417276
8.80796  0.42892
8.82694  0.451981
8.84593  0.662495
8.86492  0.84438
8.8839  0.985977
8.90289  0.903492
8.92188  1.20589
8.94086  1.41232
8.95985  1.98203
8.97883  2.78019
8.99782  4.10476
9.01681  5.97943
9.03579  7.93695
9.05478  12.1124
9.07377  21.4064
9.09275  36.6129
9.11174  97.1112
9.13072  216.438
9.14971  345.002
9.1687  460.466
9.18768  447.436
9.20667  368.82
9.22565  233.263
9.24464  164.197
9.26363  112.095
9.28261  84.5805
9.3016  72.3331
9.32059  93.0772
9.33957  149.742
9.35856  241.842
9.37754  327.728
9.39653  368.245
9.41552  311.309
9.4345  236.182
9.45349  124.412
9.47248  70.4263
9.49146  34.1477
9.51045  19.6654
9.52943  11.587
9.54842  7.5946
9.56741  5.21804
9.58639  3.93242
9.60538  3.12053
9.62436  2.3922
9.64335  1.75112
9.66234  1.55063
9.68132  1.20252
9.70031  0.990316
9.7193  0.64849
9.73828  0.303164
9.75727  0.128926
9.77625  -0.000808178
9.79524  0.50633
9.81423  1.07878
9.83321  1.83976
9.8522  2.58456
9.87119  4.67456
9.89017  7.60653
9.90916  12.5677
9.92814  23.9788
9.94713  29.6602
9.96612  27.8711
9.9851  18.5434
10.0041  10.4029
10.0231  4.55717
10.0421  2.96136
10.061  3.40273
10.08  5.01848
10.099  8.30328
10.118  90.9602
10.137  120.21
10.156  133.24
10.175  92.622
10.194  88.4944
10.2129  67.9426
10.2319  48.737
10.2509  40.0045
10.2699  11.3139
10.2889  7.03582
10.3079  4.3852
10.3269  1.48456
10.3458  0.804966
10.3648  0.2737
10.3838  0.412618
10.4028  0.6909
10.4218  0.850015
10.4408  1.24115
10.4598  1.06305
10.4787  0.765187
10.4977  0.677509
10.5167  0.799309
10.5357  1.60873
10.5547  2.54081
10.5737  3.82455
10.5927  5.64884
10.6116  9.04619
10.6306  23.2087
10.6496  42.0463
10.6686  87.391
10.6876  134.789
10.7066  233.401
10.7256  274.619
10.7446  285.062
10.7635  243.503
10.7825  184.103
10.8015  133.008
10.8205  85.4916
10.8395  51.3346
10.8585  27.9093
10.8775  17.5962
10.8964  11.7093
10.9154  8.73552
10.9344  6.42098
10.9534  5.52218
10.9724  4.92241
10.9914  4.91513
11.0104  4.7903
11.0293  4.60245
11.0483  4.68682
11.0673  4.02022
11.0863  4.11134
11.1053  3.84484
11.1243  4.66364
11.1433  4.30494
11.1622  4.28715
11.1812  4.04383
11.2002  4.72608
11.2192  5.24357
11.2382  5.74897
11.2572  5.67657
11.2762  5.46982
11.2951  5.55284
11.3141  4.6623
11.3331  3.58288
11.3521  2.53155
11.3711  1.81632
11.3901  1.4294
11.4091  1.16882
11.4281  1.15535
11.447  1.07274
11.466  0.727196
11.485  0.16299
11.504  -0.260359
11.523  -0.325973
11.542  -0.383386
11.561  -0.0147951
11.5799  -0.10683
11.5989  0.221187
11.6179  0.423291
11.6369  0.657349
11.6559  0.744641
11.6749  0.988676
11.6939  1.11055
11.7128  1.05445
11.7318  2.03515
11.7508  3.39706
11.7698  5.0233
11.7888  5.90372
11.8078  5.46606
11.8268  4.32849
11.8457  3.45393
11.8647  2.75355
11.8837  2.80431
11.9027  2.66457
11.9217  2.66221
11.9407  2.88454
11.9597  3.66946
11.9787  4.54595
11.9976  5.9463
12.0166  7.95544
12.0356  11.6773
12.0546  16.522
12.0736  31.5581
12.0926  45.7233
12.1116  77.7104
12.1305  94.9765
12.1495  91.9372
12.1685  53.1207
12.1875  33.5853
12.2065  19.6344
12.2255  13.7688
12.2445  10.9243
12.2634  8.57466
12.2824  6.99807
12.3014  5.86673
12.3204  5.32506
12.3394  4.84596
12.3584  4.47092
12.3774  4.43925
12.3963  4.47548
12.4153  4.52156
12.4343  4.17791
12.4533  4.00167
12.4723  4.09057
12.4913  4.21533
12.5103  4.05905
12.5293  3.65563
12.5482  3.81846
12.5672  3.76554
12.5862  4.0671
12.6052  4.04478
12.6242  4.36738
12.6432  4.56267
12.6622  4.79004
12.6811  5.22954
12.7001  6.40307
12.7191  7.87811
12.7381  9.68671
12.7571  11.8197
12.7761  16.7945
12.7951  32.4989
12.814  70.2435
12.833  110.941
12.852  154.279
12.871  153.397
12.89  144.194
12.909  104.214
12.928  81.5857
12.9469  47.8494
12.9659  32.4309
12.9849  18.6175
13.0039  11.9618
13.0229  7.50977
13.0419  4.70144
13.0609  3.20797
13.0799  2.09171
13.0988  1.74897
13.1178  1.32073
13.1368  0.927184
13.1558  0.420284
13.1748  0.479893
13.1938  0.664955
13.2128  0.810998
13.2317  0.759607
13.2507  0.613962
13.2697  0.49757
13.2887  0.992524
13.3077  1.13531
13.3267  1.08969
13.3457  0.981119
13.3646  1.03829
13.3836  0.813316
13.4026  0.352832
13.4216  0.206375
13.4406  0.133154
13.4596  0.0833746
13.4786  0.129756
13.4975  0.728425
13.5165  1.23616
13.5355  1.72159
13.5545  4.00719
13.5735  11.062
13.5925  21.7513
13.6115  32.0898
13.6305  31.666
13.6494  23.1522
13.6684  12.1052
13.6874  6.45088
13.7064  3.90243
13.7254  2.16853
13.7444  1.68409
13.7634  1.515
13.7823  1.01138
13.8013  0.647125
13.8203  0.719094
13.8393  0.631735
13.8583  0.108483
13.8773  -0.313366
13.8963  -0.334126
13.9152  0.0235243
13.9342  0.0354889
13.9532  0.240891
13.9722  0.15757
13.9912  0.458671
14.0102  0.170844
14.0292  0.417757
14.0481  0.401096
14.0671  0.49319
14.0861  0.511532
14.1051  0.656229
14.1241  0.915628
14.1431  0.716222
14.1621  0.82227
14.1811  0.776861
14.2  0.774266
14.219  0.673005
14.238  0.656641
14.257  0.448258
14.276  0.429147
14.295  0.89983
14.314  1.06794
14.3329  0.898277
14.3519  0.831704
14.3709  1.30484
14.3899  1.36658
14.4089  1.17524
14.4279  0.685058
14.4469  0.401509
14.4658  0.543666
14.4848  0.639366
14.5038  0.728132
14.5228  1.39775
14.5418  1.90323
14.5608  2.2081
14.5798  2.14517
14.5987  1.54783
14.6177  1.03129
14.6367  0.990922
14.6557  1.32409
14.6747  1.42667
14.6937  1.15393
14.7127  1.0511
14.7317  0.822184
14.7506  0.174203
14.7696  -0.216822
14.7886  0.0122963
14.8076  0.335981
14.8266  0.45621
14.8456  0.331293
14.8646  0.142211
14.8835  0.0247805
14.9025  -0.0543718
14.9215  0.134885
14.9405  0.531041
14.9595  0.827837
14.9785  0.850239
14.9975  0.731747
15.0164  0.677058
15.0354  0.626971
15.0544  0.561959
15.0734  0.709106
15.0924  0.81172
15.1114  0.904491
15.1304  0.865219
15.1493  1.02312
15.1683  1.15648
15.1873  1.82253
15.2063  2.21509
15.2253  2.18946
15.2443  2.03346
15.2633  2.26249
15.2823  2.70921
15.3012  3.62514
15.3202  4.51938
15.3392  6.64006
15.3582  10.04
15.3772  18.524
15.3962  39.3481
15.4152  108.898
15.4341  237.805
15.4531  356.442
15.4721  418.515
15.4911  360.015
15.5101  257.376
15.5291  166.677
15.5481  130.67
15.567  95.7868
15.586  63.3535
15.605  39.876
15.624  21.4642
15.643  15.0223
15.662  10.5947
15.681  9.07364
15.6999  9.54699
15.7189  10.8746
15.7379  13.446
15.7569  17.9104
15.7759  22.7782
15.7949  25.9336
15.8139  27.8089
15.8329  25.8532
15.8518  22.3934
15.8708  15.7236
15.8898  11.1681
15.9088  7.58135
15.9278  5.49523
15.9468  4.01207
15.9658  3.21243
15.9847  2.66889
16.0037  2.05251
16.0227  1.49703
16.0417  1.07995
16.0607  1.13995
16.0797  1.10407
16.0987  1.05693
16.1176  2.31726
16.1366  3.96104
16.1556  3.78023
16.1746  2.8502
16.1936  2.94756
16.2126  1.58748
16.2316  1.44867
16.2505  0.977664
16.2695  0.850962
16.2885  0.875557
16.3075  0.503263
16.3265  0.656564
16.3455  0.920836
16.3645  0.944871
16.3834  0.552541
16.4024  0.54694
16.4214  0.843652
16.4404  1.08866
16.4594  0.871846
16.4784  0.865544
16.4974  0.521728
16.5164  0.470081
16.5353  0.549676
16.5543  0.279351
16.5733  -0.114513
16.5923  -0.107099
16.6113  0.241808
16.6303  0.0741768
16.6493  0.0398139
16.6682  0.137255
16.6872  -0.0221196
16.7062  -0.0812249
16.7252  -0.131395
16.7442  0.0792869
16.7632  0.217832
16.7822  0.228843
16.8011  0.148484
16.8201  0.289213
16.8391  0.359491
16.8581  0.325675
16.8771  0.206311
16.8961  0.494237
16.9151  0.466709
16.934  0.464277
16.953  0.927654
16.972  2.40619
16.991  4.3163
17.01  6.90378
17.029  9.2988
17.048  10.373
17.067  9.26303
17.0859  7.59027
17.1049  6.82523
17.1239  7.63374
17.1429  12.2123
17.1619  19.4465
17.1809  32.3835
17.1999  42.3275
17.2188  50.3321
17.2378  55.0431
17.2568  59.6335
17.2758  61.5121
17.2948  53.1533
17.3138  40.1283
17.3328  26.5792
17.3517  21.4292
17.3707  18.7669
17.3897  20.6304
17.4087  22.7151
17.4277  28.6968
17.4467  26.6682
17.4657  23.1948
17.4846  13.1977
17.5036  9.39232
17.5226  6.42457
17.5416  4.79243
17.5606  3.51516
17.5796  2.49849
17.5986  2.07393
17.6176  1.72726
17.6365  1.55923
17.6555  1.22323
17.6745  0.817383
17.6935  0.696308
17.7125  0.714935
17.7315  0.824748
17.7505  0.633085
17.7694  0.560028
17.7884  0.545767
17.8074  1.18729
17.8264  1.18428
17.8454  1.14589
17.8644  0.847917
17.8834  0.483266
17.9023  0.66663
17.9213  0.936475
17.9403  0.964813
17.9593  1.12488
17.9783  1.1153
17.9973  1.44958
18.0163  1.43356
18.0352  1.69952
18.0542  2.27593
18.0732  2.33137
18.0922  2.55511
18.1112  2.53972
18.1302  2.68481
18.1492  3.04216
18.1682  3.71275
18.1871  4.8203
18.2061  6.70124
18.2251  9.27728
18.2441  15.3834
18.2631  26.2715
18.2821  49.7944
18.3011  93.2899
18.32  151.198
18.339  191.242
18.358  190.614
18.377  161.177
18.396  144.6
18.415  143.5
18.434  185.664
18.4529  196.937
18.4719  200.443
18.4909  141.526
18.5099  101.301
18.5289  56.9601
18.5479  33.0626
18.5669  22.3594
18.5858  14.4619
18.6048  10.8455
18.6238  8.70492
18.6428  7.05965
18.6618  6.01912
18.6808  5.48646
18.6998  5.67378
18.7188  7.3815
18.7377  12.6239
18.7567  24.6886
18.7757  46.4166
18.7947  83.5769
18.8137  134.14
18.8327  167.693
18.8517  159.141
18.8706  115.313
18.8896  78.1379
18.9086  67.3505
18.9276  69.4147
18.9466  71.6362
18.9656  57.3195
18.9846  38.7209
19.0035  19.4807
19.0225  10.9122
19.0415  6.6116
19.0605  5.56266
19.0795  5.83969
19.0985  9.48264
19.1175  12.6464
19.1364  13.8533
19.1554  14.6169
19.1744  16.0194
19.1934  16.6652
19.2124  15.393
19.2314  14.09
19.2504  12.8948
19.2694  7.16954
19.2883  5.47863
19.3073  4.57491
19.3263  4.29274
19.3453  4.48296
19.3643  4.41458
19.3833  4.43659
19.4023  4.15631
19.4212  4.29113
19.4402  4.17023
19.4592  4.55173
19.4782  4.59237
19.4972  4.50855
19.5162  4.46207
19.5352  4.69076
19.5541  4.91948
19.5731  5.10609
19.5921  5.40397
19.6111  5.53688
19.6301  5.47307
19.6491  5.30725
19.6681  5.29606
19.687  5.70251
19.706  6.48447
19.725  7.16253
19.744  7.91612
19.763  7.80724
19.782  7.53955
19.801  7.42715
19.82  7.78588
19.8389  8.10254
19.8579  9.28515
19.8769  11.0611
19.8959  15.045
19.9149  20.0005
19.9339  23.3438
19.9529  23.0833
19.9718  22.3095
19.9908  20.3893
20.0098  18.9382
20.0288  17.0094
20.0478  14.671
20.0668  12.5636
20.0858  11.339
20.1047  10.6352
20.1237  10.2463
20.1427  10.0195
20.1617  9.84418
20.1807  10.3179
20.1997  10.8584
20.2187  11.1064
20.2376  11.0415
20.2566  10.5811
20.2756  10.955
20.2946  11.5558
20.3136  13.8792
20.3326  16.3947
20.3516  35.0196
20.3706  51.5074
20.3895  145.229
20.4085  195.345
20.4275  166.297
20.4465  85.5892
20.4655  87.3763
20.4845  78.822
20.5035  82.0373
20.5224  75.908
20.5414  62.0476
20.5604  42.3662
20.5794  32.5743
20.5984  21.6222
20.6174  16.7386
20.6364  14.3913
20.6553  13.5434
20.6743  13.7848
20.6933  13.4285
20.7123  12.6179
20.7313  11.5336
20.7503  10.8354
20.7693  10.5028
20.7882  10.9386
20.8072  12.9863
20.8262  18.2003
20.8452  30.1211
20.8642  50.6439
20.8832  84.8332
20.9022  123.162
20.9212  155.615
20.9401  173.588
20.9591  175.233
20.9781  159.35
20.9971  132.305
21.0161  107.367
21.0351  90.5348
21.0541  72.933
21.073  52.2408
21.092  31.6817
21.111  17.706
21.13  10.4869
21.149  7.26096
21.168  5.93156
21.187  4.98907
21.2059  3.97944
21.2249  2.85861
21.2439  2.35067
21.2629  1.59662
21.2819  1.34305
21.3009  0.933698
21.3199  0.766062
21.3388  0.657921
21.3578  0.887782
21.3768  0.966798
21.3958  1.44163
21.4148  1.9754
21.4338  2.42395
21.4528  2.45032
21.4717  2.23023
21.4907  1.76391
21.5097  1.24182
21.5287  0.646437
21.5477  0.330445
21.5667  0.19893
21.5857  0.00796006
21.6047  -0.130799
21.6236  -0.231674
21.6426  -0.274904
21.6616  -0.075273
21.6806  0.0133464
21.6996  -0.140293
21.7186  -0.0636002
21.7376  0.287696
21.7565  0.766297
21.7755  1.16401
21.7945  0.945953
21.8135  0.473618
21.8325  0.0827077
21.8515  0.120927
21.8705  -0.0415469
21.8894  0.0149878
21.9084  -0.0137061
21.9274  0.0174248
21.9464  -0.0489418
21.9654  0.0348969
21.9844  0.0922879
22.0034  0.353021
22.0223  0.304297
22.0413  0.0559032
22.0603  0.0412566
22.0793  0.227798
22.0983  0.112781
22.1173  -0.0817931
22.1363  -0.273426
22.1553  -0.239281
22.1742  -0.253861
22.1932  -0.145881
22.2122  0.0643174
22.2312  0.39308
22.2502  0.220371
22.2692  -0.0794253
22.2882  0.0938664
22.3071  0.27755
22.3261  0.433364
22.3451  0.255681
22.3641  0.212588
22.3831  0.100221
22.4021  0.123031
22.4211  0.279468
22.44  0.22005
22.459  0.19555
22.478  0.242987
22.497  0.0581162
22.516  0.325724
22.535  0.47009
22.554  0.604665
22.5729  0.523998
22.5919  0.348886
22.6109  0.190702
22.6299  -0.0553213
22.6489  -0.199464
22.6679  -0.204081
22.6869  -0.0430936
22.7059  0.11443
22.7248  0.255263
22.7438  0.161238
22.7628  0.280824
22.7818  0.277119
22.8008  0.175333
22.8198  -0.0819295
22.8388  0.121919
22.8577  0.452948
22.8767  0.424656
22.8957  0.286494
22.9147  0.330009
22.9337  0.500611
22.9527  0.428986
22.9717  0.279598
22.9906  0.0402272
23.0096  -0.034249
23.0286  0.261633
23.0476  0.659427
23.0666  0.497536
23.0856  0.143424
23.1046  0.21465
23.1235  0.238741
23.1425  0.176621
23.1615  -0.162161
23.1805  -0.0764392
23.1995  -0.110424
23.2185  0.078104
23.2375  0.14972
23.2565  0.163246
23.2754  0.0615625
23.2944  0.207937
23.3134  0.16125
23.3324  0.0789846
23.3514  -0.0294175
23.3704  0.041881
23.3894  0.0870403
23.4083  0.129943
23.4273  0.118582
23.4463  0.257645
23.4653  0.180412
23.4843  0.419026
23.5033  0.387345
23.5223  0.58205
23.5412  0.369629
23.5602  0.316381
23.5792  0.30624
23.5982  0.280558
23.6172  0.283767
23.6362  0.27826
23.6552  0.173775
23.6741  0.147569
23.6931  0.225435
23.7121  0.48351
23.7311  0.593045
23.7501  0.598772
23.7691  0.565646
23.7881  0.502431
23.8071  0.515158
23.826  0.48402
23.845  0.47755
23.864  0.282254
23.883  0.184995
23.902  -0.115484
23.921  -0.159315
23.94  0.0601438
23.9589  0.329676
23.9779  0.23016
23.9969  0.278229
24.0159  0.105315
24.0349  0.120306
24.0539  0.111964
24.0729  0.0540546
24.0918  -0.00666524
24.1108  -0.195889
24.1298  -0.0561936
24.1488  0.0804444
24.1678  0.0974375
24.1868  0.0358863
24.2058  -0.0610853
24.2247  -0.0578917
24.2437  0.0391198