File: data/processed/Run1_XRD/20_ReMoB2_40p0GPa_100psi_release_P1_C4_D1w_138.dat
2.82731  0.173521
2.84629  1.28544
2.86528  0.972597
2.88427  1.34427
2.90325  1.33242
2.92224  2.05184
2.94122  2.91453
2.96021  2.64248
2.9792  2.66266
2.99818  2.24531
3.01717  2.39384
3.03616  2.0813
3.05514  1.73148
3.07413  0.878635
3.09311  1.49102
3.1121  1.4267
3.13109  1.62035
3.15007  1.38628
3.16906  1.1447
3.18805  0.994328
3.20703  1.54888
3.22602  2.26008
3.245  2.968
3.26399  3.19792
3.28298  2.67391
3.30196  2.19348
3.32095  2.56761
3.33993  3.50904
3.35892  5.12179
3.37791  6.45557
3.39689  7.97142
3.41588  10.4113
3.43487  13.7505
3.45385  18.1653
3.47284  22.4145
3.49182  25.1733
3.51081  24.8138
3.5298  21.7212
3.54878  16.8012
3.56777  12.1311
3.58676  8.30758
3.60574  5.69657
3.62473  5.07055
3.64371  3.92348
3.6627  3.49696
3.68169  2.76684
3.70067  2.4624
3.71966  2.53355
3.73864  2.06122
3.75763  1.71957
3.77662  1.24189
3.7956  1.71974
3.81459  2.26016
3.83358  2.37087
3.85256  1.75466
3.87155  1.12925
3.89053  0.83526
3.90952  0.54227
3.92851  0.792257
3.94749  1.39901
3.96648  1.48797
3.98547  1.51264
4.00445  1.94412
4.02344  1.94393
4.04242  1.42754
4.06141  0.82951
4.0804  0.61122
4.09938  0.924775
4.11837  0.679239
4.13735  1.34751
4.15634  1.39461
4.17533  1.39519
4.19431  1.32244
4.2133  1.63424
4.23229  1.43017
4.25127  1.29841
4.27026  0.851864
4.28924  0.800371
4.30823  0.108685
4.32722  0.249873
4.3462  0.319362
4.36519  0.28342
4.38418  0.222997
4.40316  0.0349663
4.42215  0.0615957
4.44113  -0.388647
4.46012  0.296813
4.47911  0.439126
4.49809  0.976662
4.51708  1.1324
4.53606  1.098
4.55505  0.785212
4.57404  0.729664
4.59302  0.950829
4.61201  0.767082
4.631  0.377082
4.64998  0.154408
4.66897  0.107363
4.68795  0.211612
4.70694  0.750075
4.72593  0.960009
4.74491  0.853749
4.7639  0.349613
4.78289  0.443906
4.80187  0.373529
4.82086  0.642922
4.83984  0.465787
4.85883  0.70037
4.87782  0.683675
4.8968  0.801116
4.91579  1.00912
4.93478  0.459037
4.95376  0.119616
4.97275  -0.174632
4.99173  0.15548
5.01072  1.02194
5.02971  1.30602
5.04869  1.07486
5.06768  0.576871
5.08666  0.107281
5.10565  0.184878
5.12464  0.266576
5.14362  0.306547
5.16261  0.100404
5.1816  0.0258968
5.20058  0.195241
5.21957  0.328097
5.23855  0.0505045
5.25754  0.261814
5.27653  0.453753
5.29551  0.593422
5.3145  0.588201
5.33349  1.11235
5.35247  1.19184
5.37146  1.29029
5.39044  0.959204
5.40943  0.925541
5.42842  0.443244
5.4474  0.479106
5.46639  0.311405
5.48537  0.237862
5.50436  0.11859
5.52335  0.476224
5.54233  0.24511
5.56132  0.141203
5.58031  -0.491875
5.59929  0.158664
5.61828  0.883562
5.63726  1.44073
5.65625  1.51251
5.67524  1.10554
5.69422  1.42838
5.71321  1.57309
5.7322  1.66343
5.75118  1.24058
5.77017  1.36729
5.78915  1.54228
5.80814  1.47874
5.82713  1.51013
5.84611  1.02317
5.8651  0.564245
5.88408  0.159616
5.90307  0.172422
5.92206  0.921188
5.94104  1.65826
5.96003  2.39807
5.97902  1.86658
5.998  1.61161
6.01699  0.948941
6.03597  0.777201
6.05496  0.73995
6.07395  0.879846
6.09293  0.592369
6.11192  0.0732836
6.13091  -0.0956038
6.14989  -0.0498512
6.16888  0.399092
6.18786  -0.23364
6.20685  -0.22616
6.22584  0.575719
6.24482  1.29496
6.26381  1.35052
6.28279  1.18013
6.30178  1.64104
6.32077  2.65544
6.33975  3.48981
6.35874  4.05799
6.37773  4.73328
6.39671  4.84405
6.4157  4.98821
6.43468  4.66576
6.45367  4.57525
6.47266  4.02617
6.49164  3.44367
6.51063  2.55601
6.52962  2.76955
6.5486  3.98204
6.56759  5.43004
6.58657  7.26987
6.60556  9.16632
6.62455  12.4048
6.64353  16.4067
6.66252  21.1779
6.6815  25.6113
6.70049  29.6299
6.71948  32.4255
6.73846  34.1011
6.75745  33.7037
6.77644  32.5581
6.79542  30.984
6.81441  30.6693
6.83339  31.8186
6.85238  35.8102
6.87137  43.1246
6.89035  54.9583
6.90934  70.7224
6.92833  91.9875
6.94731  115.373
6.9663  136.334
6.98528  149.064
7.00427  151.638
7.02326  143.907
7.04224  128.245
7.06123  108.024
7.08021  88.0302
7.0992  70.3853
7.11819  55.8997
7.13717  43.447
7.15616  33.3816
7.17515  25.5349
7.19413  19.2361
7.21312  15.3949
7.2321  11.9447
7.25109  9.68161
7.27008  7.47335
7.28906  5.85812
7.30805  4.565
7.32704  3.83625
7.34602  3.37927
7.36501  2.45707
7.38399  1.84781
7.40298  1.70386
7.42197  1.83866
7.44095  1.58022
7.45994  1.47519
7.47892  0.828161
7.49791  0.466631
7.5169  -0.0528048
7.53588  0.170044
7.55487  0.0977899
7.57386  0.451983
7.59284  0.22707
7.61183  0.592628
7.63081  0.250346
7.6498  0.0188681
7.66879  0.231428
7.68777  0.206166
7.70676  0.198793
7.72575  -0.156964
7.74473  -0.0101926
7.76372  0.739799
7.7827  0.928404
7.80169  0.527146
7.82068  0.0304579
7.83966  0.0992832
7.85865  0.417385
7.87764  0.700152
7.89662  0.70589
7.91561  0.680146
7.93459  0.53015
7.95358  0.0230867
7.97257  0.327288
7.99155  0.477166
8.01054  0.640356
8.02952  0.220444
8.04851  0.0744964
8.0675  0.0972823
8.08648  0.352105
8.10547  0.392297
8.12446  0.229148
8.14344  0.177346
8.16243  0.155236
8.18141  0.0453715
8.2004  0.0541455
8.21939  -0.181859
8.23837  0.0351782
8.25736  -0.0413726
8.27635  -0.11949
8.29533  -0.427227
8.31432  -0.808838
8.3333  -0.921593
8.35229  -0.710905
8.37128  -0.595365
8.39026  -0.540088
8.40925  -0.736217
8.42823  -0.653815
8.44722  -0.677458
8.46621  -0.528515
8.48519  -0.291015
8.50418  0.137661
8.52317  -0.119435
8.54215  -0.283828
8.56114  -0.162671
8.58012  -0.0917923
8.59911  0.369286
8.6181  0.588494
8.63708  0.944758
8.65607  1.63231
8.67506  2.14633
8.69404  2.59772
8.71303  2.50795
8.73201  3.45877
8.751  4.36712
8.76999  6.01
8.78897  6.87068
8.80796  7.48345
8.82694  8.536
8.84593  10.1699
8.86492  12.7241
8.8839  14.362
8.90289  16.6641
8.92188  19.3061
8.94086  22.9667
8.95985  27.5865
8.97883  32.1283
8.99782  39.2676
9.01681  49.0104
9.03579  62.2244
9.05478  80.9176
9.07377  109.273
9.09275  150.238
9.11174  205.321
9.13072  280.433
9.14971  366.879
9.1687  453.598
9.18768  530.998
9.20667  578.368
9.22565  592.776
9.24464  573.366
9.26363  538.912
9.28261  496.924
9.3016  463.142
9.32059  433.789
9.33957  425.326
9.35856  436.104
9.37754  465.215
9.39653  513.352
9.41552  572.087
9.4345  631.358
9.45349  683.523
9.47248  721.162
9.49146  737.549
9.51045  740.036
9.52943  721.337
9.54842  689.039
9.56741  637.783
9.58639  581.039
9.60538  515.845
9.62436  453.444
9.64335  394.646
9.66234  340.714
9.68132  293.057
9.70031  254.797
9.7193  222.739
9.73828  196.699
9.75727  174.893
9.77625  155.885
9.79524  141.722
9.81423  127.139
9.83321  112.834
9.8522  97.3265
9.87119  81.8759
9.89017  64.6392
9.90916  51.684
9.92814  38.6907
9.94713  29.5964
9.96612  22.0047
9.9851  15.6719
10.0041  11.1351
10.0231  6.83693
10.0421  3.62095
10.061  1.9668
10.08  0.851733
10.099  0.0749038
10.118  -0.994148
10.137  -1.8978
10.156  -2.53786
10.175  -2.75586
10.194  -2.5671
10.2129  -2.01773
10.2319  -1.36312
10.2509  -0.929686
10.2699  -0.800362
10.2889  -0.709632
10.3079  -0.442134
10.3269  -0.106777
10.3458  -0.341044
10.3648  -0.779903
10.3838  -0.985482
10.4028  -0.464545
10.4218  0.467546
10.4408  2.02922
10.4598  3.22962
10.4787  4.69895
10.4977  5.79447
10.5167  6.85374
10.5357  7.31409
10.5547  7.83843
10.5737  8.63361
10.5927  9.76234
10.6116  11.3257
10.6306  12.6854
10.6496  14.3057
10.6686  15.9183
10.6876  17.628
10.7066  19.7998
10.7256  22.3079
10.7446  24.8987
10.7635  27.7552
10.7825  30.4861
10.8015  32.9935
10.8205  34.9379
10.8395  37.2165
10.8585  40.1189
10.8775  43.0835
10.8964  46.0705
10.9154  48.433
10.9344  50.8356
10.9534  53.1134
10.9724  54.6057
10.9914  56.3337
11.0104  56.5313
11.0293  56.9319
11.0483  55.8268
11.0673  53.9544
11.0863  50.4892
11.1053  47.8609
11.1243  44.6591
11.1433  41.1511
11.1622  37.394
11.1812  33.6768
11.2002  30.7652
11.2192  27.5101
11.2382  23.8798
11.2572  20.1271
11.2762  16.2102
11.2951  13.2137
11.3141  10.0972
11.3331  7.19541
11.3521  4.33267
11.3711  2.62065
11.3901  1.10079
11.4091  0.272686
11.4281  -0.0216103
11.447  -0.122214
11.466  -0.67397
11.485  -1.37122
11.504  -1.73501
11.523  1.93762
11.542  6.94062
11.561  12.0288
11.5799  17.1963
11.5989  22.9311
11.6179  28.8182
11.6369  35.1514
11.6559  41.9946
11.6749  50.0797
11.6939  57.5584
11.7128  67.3633
11.7318  79.8658
11.7508  95.0799
11.7698  114.225
11.7888  136.903
11.8078  164.913
11.8268  197.512
11.8457  234.066
11.8647  272.443
11.8837  312.566
11.9027  349.481
11.9217  379.756
11.9407  402.487
11.9597  411.033
11.9787  410.428
11.9976  397.176
12.0166  375.446
12.0356  347.51
12.0546  321.172
12.0736  292.344
12.0926  264.501
12.1116  238.485
12.1305  212.441
12.1495  189.091
12.1685  166.916
12.1875  146.975
12.2065  128.344
12.2255  112.292
12.2445  97.9002
12.2634  85.8796
12.2824  76.4118
12.3014  67.2459
12.3204  61.0031
12.3394  54.6245
12.3584  49.0832
12.3774  44.4671
12.3963  39.4545
12.4153  35.9355
12.4343  32.6148
12.4533  30.6179
12.4723  28.4742
12.4913  26.6056
12.5103  25.9213
12.5293  25.2212
12.5482  25.1959
12.5672  25.5194
12.5862  26.0104
12.6052  26.7989
12.6242  27.3527
12.6432  28.4326
12.6622  29.0946
12.6811  30.7978
12.7001  32.8055
12.7191  34.4738
12.7381  35.6791
12.7571  35.9888
12.7761  36.8906
12.7951  37.6541
12.814  37.8327
12.833  37.6968
12.852  37.6863
12.871  38.5403
12.89  38.9048
12.909  39.2887
12.928  39.524
12.9469  40.4444
12.9659  41.4287
12.9849  41.8402
13.0039  42.6993
13.0229  42.9912
13.0419  43.6389
13.0609  43.2787
13.0799  42.7987
13.0988  41.1603
13.1178  40.0812
13.1368  39.5578
13.1558  38.2048
13.1748  36.7363
13.1938  34.5007
13.2128  32.647
13.2317  30.4446
13.2507  28.0237
13.2697  25.5706
13.2887  22.9186
13.3077  20.9207
13.3267  18.4765
13.3457  16.1635
13.3646  13.6991
13.3836  11.1228
13.4026  9.45849
13.4216  7.95134
13.4406  6.22147
13.4596  4.41205
13.4786  2.95214
13.4975  1.97301
13.5165  0.826162
13.5355  0.103818
13.5545  -0.926486
13.5735  -1.6273
13.5925  -2.41642
13.6115  -2.70333
13.6305  -2.95364
13.6494  -2.50945
13.6684  -1.83729
13.6874  -1.18404
13.7064  -0.596514
13.7254  -0.162907
13.7444  0.672463
13.7634  1.62511
13.7823  2.61655
13.8013  3.73788
13.8203  5.06347
13.8393  6.58536
13.8583  7.91688
13.8773  9.38347
13.8963  10.6753
13.9152  11.6439
13.9342  12.8979
13.9532  14.3245
13.9722  15.1581
13.9912  15.5509
14.0102  15.4137
14.0292  15.1148
14.0481  14.5319
14.0671  13.7348
14.0861  12.9805
14.1051  12.1023
14.1241  10.8056
14.1431  9.5705
14.1621  8.49686
14.1811  7.22529
14.2  5.80551
14.219  4.46776
14.238  3.7026
14.257  2.84009
14.276  2.16338
14.295  1.80076
14.314  1.60704
14.3329  0.796132
14.3519  0.166949
14.3709  0.0678133
14.3899  0.0204153
14.4089  0.0880022
14.4279  -0.209875
14.4469  -0.501016
14.4658  -0.588141
14.4848  -0.288858
14.5038  -0.206251
14.5228  -0.378225
14.5418  -0.479663
14.5608  -0.635102
14.5798  -0.953622
14.5987  -0.982221
14.6177  -0.50955
14.6367  -0.217123
14.6557  -0.0029568
14.6747  -0.0569324
14.6937  -0.0206025
14.7127  0.00843127
14.7317  0.325792
14.7506  -0.0025378
14.7696  -0.111494
14.7886  -0.302803
14.8076  0.162561
14.8266  0.310555
14.8456  0.60144
14.8646  0.681019
14.8835  0.73992
14.9025  0.532546
14.9215  0.774755
14.9405  1.29264
14.9595  1.53586
14.9785  1.22459
14.9975  1.19325
15.0164  1.57193
15.0354  2.00542
15.0544  1.93696
15.0734  1.42262
15.0924  1.27719
15.1114  0.799932
15.1304  -0.00221804
15.1493  -0.25514
15.1683  -0.192368
15.1873  0.725473
15.2063  1.09794
15.2253  0.920182
15.2443  0.832203
15.2633  0.414162
15.2823  0.792388
15.3012  1.18849
15.3202  0.766739
15.3392  0.505305
15.3582  0.501433
15.3772  0.334957
15.3962  0.369804
15.4152  0.0877724
15.4341  0.633523
15.4531  0.870985
15.4721  0.89305
15.4911  0.490027
15.5101  0.371129
15.5291  1.09793
15.5481  1.47466
15.567  1.57352
15.586  1.27445
15.605  1.37296
15.624  1.56534
15.643  1.97198
15.662  2.39626
15.681  2.92394
15.6999  3.42943
15.7189  4.39684
15.7379  4.83245
15.7569  5.8255
15.7759  6.80737
15.7949  7.98103
15.8139  8.62152
15.8329  9.47633
15.8518  10.6898
15.8708  11.7846
15.8898  12.801
15.9088  13.6903
15.9278  14.8445
15.9468  16.1127
15.9658  16.9457
15.9847  17.5919
16.0037  18.3561
16.0227  18.7642
16.0417  19.0472
16.0607  18.9204
16.0797  19.1983
16.0987  18.6868
16.1176  18.1865
16.1366  17.0766
16.1556  16.7654
16.1746  16.6161
16.1936  17.0445
16.2126  17.704
16.2316  18.775
16.2505  20.3634
16.2695  22.5693
16.2885  25.9953
16.3075  30.4371
16.3265  36.3015
16.3455  44.0024
16.3645  52.2926
16.3834  60.8167
16.4024  68.619
16.4214  74.4573
16.4404  77.331
16.4594  76.7738
16.4784  73.2497
16.4974  68.2177
16.5164  63.3139
16.5353  56.399
16.5543  49.2289
16.5733  41.2343
16.5923  34.9035
16.6113  29.7242
16.6303  24.9759
16.6493  20.6831
16.6682  16.7597
16.6872  14.2026
16.7062  11.3634
16.7252  9.77182
16.7442  8.57243
16.7632  7.37237
16.7822  6.38755
16.8011  5.49651
16.8201  4.84611
16.8391  4.27997
16.8581  3.51784
16.8771  3.07231
16.8961  2.37733
16.9151  1.74323
16.934  1.17053
16.953  1.38384
16.972  1.25844
16.991  1.01214
17.01  0.33023
17.029  -0.180602
17.048  -0.508246
17.067  -0.868676
17.0859  -1.00733
17.1049  -1.01873
17.1239  -1.15428
17.1429  -1.17925
17.1619  -1.20662
17.1809  -0.959059
17.1999  -0.68897
17.2188  -0.180023
17.2378  -0.179524
17.2568  -0.218421
17.2758  -0.442258
17.2948  -0.308078
17.3138  -0.046974
17.3328  0.958249
17.3517  1.6457
17.3707  2.41508
17.3897  2.7729
17.4087  3.45808
17.4277  4.57638
17.4467  6.26164
17.4657  8.49747
17.4846  10.8977
17.5036  13.3659
17.5226  16.2533
17.5416  20.074
17.5606  23.8417
17.5796  28.094
17.5986  32.9435
17.6176  38.881
17.6365  45.3611
17.6555  51.4742
17.6745  57.4245
17.6935  63.0261
17.7125  68.9678
17.7315  74.1975
17.7505  78.685
17.7694  82.838
17.7884  87.2926
17.8074  92.4586
17.8264  97.4161
17.8454  102.1
17.8644  106.571
17.8834  110.491
17.9023  113.644
17.9213  115.002
17.9403  114.677
17.9593  112.838
17.9783  109.381
17.9973  104.453
18.0163  97.6609
18.0352  90.1996
18.0542  81.5337
18.0732  73.2834
18.0922  65.5887
18.1112  59.3749
18.1302  54.1014
18.1492  49.7868
18.1682  46.2396
18.1871  43.9012
18.2061  42.5494
18.2251  41.2571
18.2441  39.8728
18.2631  37.4251
18.2821  34.8722
18.3011  31.4461
18.32  27.6737
18.339  23.5886
18.358  20.1041
18.377  16.6194
18.396  13.7233
18.415  11.3828
18.434  9.89621
18.4529  8.4984
18.4719  7.14918
18.4909  5.88292
18.5099  5.2005
18.5289  4.60315
18.5479  4.81839
18.5669  4.79807
18.5858  4.83293
18.6048  4.65551
18.6238  4.63712
18.6428  4.90957
18.6618  5.38764
18.6808  6.33373
18.6998  7.31162
18.7188  8.56822
18.7377  9.86808
18.7567  11.1787
18.7757  12.435
18.7947  13.6296
18.8137  14.6506
18.8327  15.6008
18.8517  16.6478
18.8706  17.5064
18.8896  17.6496
18.9086  17.722
18.9276  18.1504
18.9466  18.5391
18.9656  18.4443
18.9846  17.9418
19.0035  16.8471
19.0225  15.4641
19.0415  13.4795
19.0605  12.4038
19.0795  10.9282
19.0985  9.4514
19.1175  7.63658
19.1364  6.0263
19.1554  4.46557
19.1744  3.16612
19.1934  1.91812
19.2124  1.26181
19.2314  1.05911
19.2504  1.18196
19.2694  0.791219
19.2883  0.497578
19.3073  0.829361
19.3263  1.10456
19.3453  1.24512
19.3643  1.37998
19.3833  1.90872
19.4023  2.53319
19.4212  3.20501
19.4402  4.47804
19.4592  6.14143
19.4782  8.45525
19.4972  10.871
19.5162  13.5018
19.5352  16.9417
19.5541  20.2113
19.5731  23.4414
19.5921  26.3227
19.6111  29.894
19.6301  32.6298
19.6491  34.5697
19.6681  35.6018
19.687  35.9279
19.706  35.5906
19.725  35.0005
19.744  34.518
19.763  33.3926
19.782  32.0065
19.801  31.2524
19.82  31.1386
19.8389  30.952
19.8579  31.3496
19.8769  31.0581
19.8959  31.7961
19.9149  31.6148
19.9339  31.4445
19.9529  31.0536
19.9718  30.6882
19.9908  29.8602
20.0098  28.854
20.0288  27.5486
20.0478  26.9815
20.0668  25.3088
20.0858  24.0456
20.1047  23.5079
20.1237  23.0105
20.1427  22.4845
20.1617  21.4285
20.1807  20.5572
20.1997  19.9226
20.2187  19.3873
20.2376  18.2507
20.2566  16.9513
20.2756  16.1046
20.2946  15.5836
20.3136  15.3238
20.3326  14.9116
20.3516  14.3017
20.3706  13.3336
20.3895  12.4808
20.4085  12.1557
20.4275  11.7516
20.4465  11.2414
20.4655  10.8482
20.4845  10.2265
20.5035  10.2781
20.5224  10.2913
20.5414  10.564
20.5604  10.346
20.5794  10.2561
20.5984  10.1678
20.6174  10.0657
20.6364  10.259
20.6553  10.4328
20.6743  10.6631
20.6933  11.0936
20.7123  11.3067
20.7313  11.5252
20.7503  11.4511
20.7693  11.3797
20.7882  11.5005
20.8072  11.8521
20.8262  12.4216
20.8452  12.845
20.8642  13.3668
20.8832  13.6253
20.9022  14.1557
20.9212  14.319
20.9401  14.5681
20.9591  14.6597
20.9781  14.9664
20.9971  14.8053
21.0161  14.6156
21.0351  14.4925
21.0541  14.3453
21.073  13.9044
21.092  13.224
21.111  12.7309
21.13  12.1146
21.149  11.4311
21.168  10.6458
21.187  10.1621
21.2059  9.54926
21.2249  8.64571
21.2439  7.75482
21.2629  6.84674
21.2819  5.60805
21.3009  4.32135
21.3199  3.60969
21.3388  3.13313
21.3578  2.42464
21.3768  1.61939
21.3958  1.46558
21.4148  1.28503
21.4338  0.988538
21.4528  0.398305
21.4717  0.0758656
21.4907  -0.386022
21.5097  -0.676997
21.5287  -0.675799
21.5477  -0.641416
21.5667  -0.700799
21.5857  -0.703525
21.6047  -0.395429
21.6236  -0.277663
21.6426  -0.029944
21.6616  0.0510964
21.6806  0.443405
21.6996  0.924517
21.7186  1.42403
21.7376  1.72089
21.7565  1.74494
21.7755  1.89887
21.7945  2.09294
21.8135  2.03082
21.8325  1.801
21.8515  1.46767
21.8705  1.04096
21.8894  0.694587
21.9084  0.748441
21.9274  0.973167
21.9464  1.14668
21.9654  1.30457
21.9844  1.4884
22.0034  1.93307
22.0223  2.66352
22.0413  3.2998
22.0603  3.83297
22.0793  4.20556
22.0983  4.46936
22.1173  4.74913
22.1363  4.69915
22.1553  4.71462
22.1742  4.3262
22.1932  3.86502
22.2122  3.22331
22.2312  2.79147
22.2502  2.5442
22.2692  2.35232
22.2882  2.35962
22.3071  2.11117
22.3261  2.42731
22.3451  2.26315
22.3641  1.71201
22.3831  1.08545
22.4021  0.831721
22.4211  0.829032
22.44  0.904055
22.459  0.85674
22.478  0.75358
22.497  0.434151
22.516  0.18982
22.535  0.102556
22.554  0.315269
22.5729  0.393738
22.5919  0.404021
22.6109  0.454713
22.6299  0.437996
22.6489  0.278203
22.6679  0.0495833
22.6869  0.0421328
22.7059  -0.114189
22.7248  -0.0661439
22.7438  -0.168676
22.7628  -0.293908
22.7818  -0.263562
22.8008  -0.1884
22.8198  -0.179902
22.8388  -0.212987
22.8577  -0.187794
22.8767  0.0653812
22.8957  0.150521
22.9147  0.0309389
22.9337  0.071116
22.9527  -0.0135255
22.9717  0.0887942
22.9906  0.108628
23.0096  0.184924
23.0286  0.0948996
23.0476  0.105986
23.0666  0.205914
23.0856  0.216309
23.1046  0.111663
23.1235  -0.120361
23.1425  -0.000138125
23.1615  0.263347
23.1805  0.561664
23.1995  0.367993
23.2185  0.126893
23.2375  0.110008
23.2565  0.168347
23.2754  0.0871971
23.2944  0.0154297
23.3134  -0.0290694
23.3324  -0.0470297
23.3514  0.0390522
23.3704  0.240119
23.3894  0.272286
23.4083  0.131283
23.4273  0.0779357
23.4463  0.168556
23.4653  -0.0166375
23.4843  -0.0601767
23.5033  -0.100833
23.5223  0.0542645
23.5412  -0.0111469
23.5602  0.0647958
23.5792  0.281222
23.5982  0.457348
23.6172  0.230538
23.6362  0.0108542
23.6552  0.0449512
23.6741  0.0952377
23.6931  0.0924086
23.7121  0.127804
23.7311  0.0617373
23.7501  -0.0549443
23.7691  0.0506291
23.7881  -0.000625492
23.8071  -0.0192661
23.826  0.0422931
23.845  0.154589
23.864  0.0668634
23.883  -0.0343927
23.902  0.000178249
23.921  0.15906
23.94  0.269701
23.9589  0.208334
23.9779  0.160692
23.9969  -0.096279
24.0159  -0.0104248
24.0349  -0.0348637
24.0539  0.0756937
24.0729  0.0762535
24.0918  0.161365
24.1108  0.0574016
24.1298  0.0131474
24.1488  -0.176179
24.1678  -0.218508
24.1868  -0.10524
24.2058  0.200586
24.2247  0.211231
24.2437  -0.148769