File: data/processed/Run1_XRD/21_ReMoB2_25p0GPa_0psi_release_P1_C4_D1w_144.dat
2.82731  0.577224
2.84629  0.730898
2.86528  0.345366
2.88427  0.150177
2.90325  0.51436
2.92224  1.1712
2.94122  1.62103
2.96021  1.63286
2.9792  1.18017
2.99818  0.499475
3.01717  -0.18909
3.03616  -0.296157
3.05514  0.523853
3.07413  0.969933
3.09311  1.29737
3.1121  1.51331
3.13109  1.43125
3.15007  1.63084
3.16906  1.30533
3.18805  1.50827
3.20703  1.78893
3.22602  1.9454
3.245  2.21827
3.26399  2.12602
3.28298  2.57921
3.30196  3.20173
3.32095  4.58143
3.33993  6.00241
3.35892  7.25657
3.37791  8.58531
3.39689  10.811
3.41588  13.9962
3.43487  17.8088
3.45385  20.8858
3.47284  21.9036
3.49182  20.2101
3.51081  16.5081
3.5298  12.2829
3.54878  8.63431
3.56777  6.29898
3.58676  5.09321
3.60574  3.91788
3.62473  3.3818
3.64371  3.10216
3.6627  3.26154
3.68169  2.67214
3.70067  2.2241
3.71966  2.22888
3.73864  2.14129
3.75763  1.93468
3.77662  1.46933
3.7956  1.59417
3.81459  1.69393
3.83358  1.54498
3.85256  1.43086
3.87155  1.07532
3.89053  0.66807
3.90952  0.746339
3.92851  0.76183
3.94749  0.967087
3.96648  0.866992
3.98547  0.833212
4.00445  0.923218
4.02344  0.749404
4.04242  0.529261
4.06141  0.584068
4.0804  0.416295
4.09938  1.00516
4.11837  1.06265
4.13735  1.75592
4.15634  1.78562
4.17533  1.25346
4.19431  0.836903
4.2133  0.387595
4.23229  0.356019
4.25127  0.0718944
4.27026  0.395159
4.28924  0.555554
4.30823  0.865958
4.32722  1.1277
4.3462  0.711382
4.36519  0.751614
4.38418  0.267374
4.40316  0.302189
4.42215  0.197962
4.44113  -0.0657013
4.46012  -0.245949
4.47911  -0.363837
4.49809  -0.180944
4.51708  0.381151
4.53606  0.331273
4.55505  0.206887
4.57404  0.108011
4.59302  0.142207
4.61201  0.508759
4.631  0.906832
4.64998  1.15104
4.66897  1.193
4.68795  0.808032
4.70694  0.734517
4.72593  0.606856
4.74491  0.200703
4.7639  0.258934
4.78289  0.272276
4.80187  0.680426
4.82086  1.17765
4.83984  1.40991
4.85883  1.27653
4.87782  1.42593
4.8968  1.33903
4.91579  1.67297
4.93478  1.79149
4.95376  1.47225
4.97275  1.00311
4.99173  0.591025
5.01072  0.354021
5.02971  0.352431
5.04869  0.668689
5.06768  0.766778
5.08666  1.12377
5.10565  1.16682
5.12464  1.28568
5.14362  0.785565
5.16261  0.238706
5.1816  -0.196121
5.20058  0.0437201
5.21957  0.803493
5.23855  1.21579
5.25754  0.786977
5.27653  0.245041
5.29551  0.0339354
5.3145  -0.26009
5.33349  -0.333311
5.35247  -0.242466
5.37146  -0.265701
5.39044  0.247607
5.40943  0.347456
5.42842  0.525211
5.4474  -0.00551086
5.46639  0.178017
5.48537  0.411929
5.50436  0.535692
5.52335  0.761418
5.54233  0.675654
5.56132  0.697708
5.58031  0.738076
5.59929  0.580137
5.61828  1.00511
5.63726  1.47736
5.65625  1.54591
5.67524  1.63251
5.69422  1.48757
5.71321  1.95405
5.7322  2.14667
5.75118  1.93682
5.77017  1.60845
5.78915  1.43955
5.80814  1.58951
5.82713  1.08297
5.84611  0.848136
5.8651  0.68344
5.88408  1.08925
5.90307  1.17178
5.92206  1.69531
5.94104  1.69192
5.96003  1.67945
5.97902  1.06879
5.998  0.53072
6.01699  0.0698891
6.03597  -0.191342
6.05496  -0.618617
6.07395  -0.178807
6.09293  -0.0767765
6.11192  0.365038
6.13091  0.11535
6.14989  -0.103192
6.16888  -0.0276759
6.18786  -0.393817
6.20685  0.390719
6.22584  0.99169
6.24482  1.76124
6.26381  1.98337
6.28279  2.60105
6.30178  3.32478
6.32077  3.85752
6.33975  4.43985
6.35874  4.06745
6.37773  3.83373
6.39671  3.66057
6.4157  3.54235
6.43468  3.12697
6.45367  3.32636
6.47266  3.53019
6.49164  4.32072
6.51063  3.99655
6.52962  4.79717
6.5486  5.59559
6.56759  7.1449
6.58657  8.56264
6.60556  11.1513
6.62455  13.8449
6.64353  16.6154
6.66252  18.377
6.6815  19.5805
6.70049  20.0378
6.71948  20.7218
6.73846  21.4112
6.75745  23.0537
6.77644  25.6662
6.79542  30.4441
6.81441  37.2679
6.83339  47.2471
6.85238  59.8113
6.87137  75.4414
6.89035  92.2122
6.90934  108.154
6.92833  120.131
6.94731  124.894
6.9663  120.714
6.98528  110.232
7.00427  95.1554
7.02326  80.9398
7.04224  66.5083
7.06123  53.0205
7.08021  40.305
7.0992  30.805
7.11819  23.488
7.13717  18.372
7.15616  14.3631
7.17515  11.5708
7.19413  9.59229
7.21312  8.06843
7.2321  6.014
7.25109  4.75151
7.27008  3.62815
7.28906  3.37617
7.30805  2.72347
7.32704  2.15133
7.34602  1.86301
7.36501  1.82178
7.38399  2.10872
7.40298  2.56791
7.42197  2.49387
7.44095  1.8673
7.45994  1.44179
7.47892  1.06112
7.49791  0.891874
7.5169  0.514988
7.53588  0.42822
7.55487  0.306899
7.57386  0.637054
7.59284  0.459589
7.61183  0.41278
7.63081  0.460113
7.6498  0.594321
7.66879  0.771257
7.68777  0.784505
7.70676  1.25753
7.72575  1.17009
7.74473  0.893174
7.76372  0.812496
7.7827  0.442577
7.80169  -0.116556
7.82068  -0.43308
7.83966  -0.440422
7.85865  -0.0839554
7.87764  -0.101273
7.89662  0.0119537
7.91561  0.0152031
7.93459  0.00628327
7.95358  -0.137824
7.97257  0.0365082
7.99155  0.146622
8.01054  0.300146
8.02952  0.12829
8.04851  -0.0331213
8.0675  -0.36409
8.08648  -0.266406
8.10547  -0.000640626
8.12446  0.0690307
8.14344  -0.00577827
8.16243  -0.458285
8.18141  -0.780766
8.2004  -1.26909
8.21939  -0.804579
8.23837  -0.681464
8.25736  -0.181939
8.27635  -0.348192
8.29533  -0.439414
8.31432  -0.338213
8.3333  -0.33861
8.35229  -0.272488
8.37128  -0.553692
8.39026  -0.359544
8.40925  -0.305275
8.42823  1.04524
8.44722  1.90768
8.46621  2.97011
8.48519  3.58028
8.50418  4.33681
8.52317  4.80738
8.54215  5.19901
8.56114  6.24825
8.58012  7.38335
8.59911  8.50809
8.6181  10.1875
8.63708  11.8001
8.65607  13.5084
8.67506  14.7965
8.69404  16.0369
8.71303  18.0177
8.73201  20.2891
8.751  22.6308
8.76999  25.2783
8.78897  28.2251
8.80796  31.6271
8.82694  36.1149
8.84593  41.138
8.86492  46.8711
8.8839  53.8376
8.90289  63.1715
8.92188  74.1397
8.94086  88.7097
8.95985  108.034
8.97883  131.886
8.99782  163.575
9.01681  204.487
9.03579  249.368
9.05478  295.46
9.07377  335.415
9.09275  365.699
9.11174  380.087
9.13072  385.778
9.14971  381.31
9.1687  373.606
9.18768  367.552
9.20667  368.086
9.22565  381.145
9.24464  404.074
9.26363  439.779
9.28261  485.598
9.3016  540.031
9.32059  598.507
9.33957  657.063
9.35856  709.732
9.37754  742.482
9.39653  753.835
9.41552  739.982
9.4345  698.249
9.45349  644.889
9.47248  575.618
9.49146  507.212
9.51045  436.186
9.52943  373.51
9.54842  316.657
9.56741  271.652
9.58639  237.016
9.60538  209.057
9.62436  185.063
9.64335  163.905
9.66234  143.888
9.68132  125.063
9.70031  105.965
9.7193  90.0235
9.73828  73.8813
9.75727  60.1436
9.77625  47.5004
9.79524  36.0952
9.81423  27.7929
9.83321  20.7966
9.8522  15.1874
9.87119  10.8457
9.89017  7.31573
9.90916  5.01541
9.92814  3.36909
9.94713  2.21774
9.96612  2.00481
9.9851  1.07533
10.0041  0.421571
10.0231  -0.517829
10.0421  -1.34659
10.061  -2.0022
10.08  -2.15877
10.099  -1.96657
10.118  -2.19096
10.137  -2.697
10.156  -2.53657
10.175  -2.82296
10.194  -2.61237
10.2129  -2.64422
10.2319  -2.43496
10.2509  -1.65566
10.2699  -1.10322
10.2889  -0.407346
10.3079  -0.0398359
10.3269  1.01574
10.3458  2.19612
10.3648  3.39296
10.3838  4.90841
10.4028  6.32253
10.4218  7.84693
10.4408  9.53841
10.4598  10.7643
10.4787  11.9532
10.4977  13.356
10.5167  14.7247
10.5357  16.871
10.5547  18.4991
10.5737  20.7447
10.5927  22.4825
10.6116  24.1053
10.6306  25.0612
10.6496  26.4615
10.6686  28.478
10.6876  30.3117
10.7066  32.7832
10.7256  34.8672
10.7446  36.2692
10.7635  37.9662
10.7825  39.0209
10.8015  41.0414
10.8205  41.8469
10.8395  42.6488
10.8585  42.8915
10.8775  43.2774
10.8964  43.4448
10.9154  43.5151
10.9344  43.5282
10.9534  42.4195
10.9724  41.437
10.9914  40.1621
11.0104  38.5216
11.0293  36.7626
11.0483  34.478
11.0673  31.1414
11.0863  26.5759
11.1053  23.5093
11.1243  20.4618
11.1433  17.1799
11.1622  14.1515
11.1812  11.4635
11.2002  9.17142
11.2192  6.6722
11.2382  4.57667
11.2572  3.07161
11.2762  1.4441
11.2951  0.555777
11.3141  -0.0879234
11.3331  -0.446034
11.3521  -0.00455573
11.3711  0.743505
11.3901  2.26938
11.4091  3.73231
11.4281  5.42854
11.447  8.1662
11.466  10.3261
11.485  13.3213
11.504  16.1987
11.523  26.8849
11.542  40.7177
11.561  52.4093
11.5799  64.9825
11.5989  77.0636
11.6179  91.7004
11.6369  107.8
11.6559  124.109
11.6749  143.636
11.6939  160.9
11.7128  182.09
11.7318  203.45
11.7508  221.253
11.7698  236.41
11.7888  243.977
11.8078  245.552
11.8268  238.345
11.8457  226.858
11.8647  207.778
11.8837  189.899
11.9027  169.223
11.9217  150.068
11.9407  134.946
11.9597  119.194
11.9787  108.217
11.9976  98.1875
12.0166  89.4978
12.0356  82.1574
12.0546  76.0863
12.0736  70.7544
12.0926  65.1289
12.1116  59.4073
12.1305  53.5787
12.1495  48.3969
12.1685  43.5431
12.1875  39.5257
12.2065  36.132
12.2255  33.4881
12.2445  30.7732
12.2634  28.1345
12.2824  25.6788
12.3014  23.3869
12.3204  21.8173
12.3394  20.6831
12.3584  19.8838
12.3774  19.5224
12.3963  18.9183
12.4153  18.6928
12.4343  18.5523
12.4533  18.7835
12.4723  18.4319
12.4913  18.1678
12.5103  18.2675
12.5293  18.9852
12.5482  19.8463
12.5672  20.3807
12.5862  20.2484
12.6052  21.3206
12.6242  21.5795
12.6432  21.5065
12.6622  20.3721
12.6811  20.0619
12.7001  20.4419
12.7191  21.0585
12.7381  21.5496
12.7571  21.4642
12.7761  21.84
12.7951  22.443
12.814  22.8305
12.833  23.2782
12.852  23.6226
12.871  24.0097
12.89  24.1333
12.909  24.2286
12.928  24.3271
12.9469  24.1431
12.9659  24.0313
12.9849  23.192
13.0039  22.5382
13.0229  22.1139
13.0419  21.3876
13.0609  20.1723
13.0799  18.909
13.0988  18.094
13.1178  17.0689
13.1368  16.2768
13.1558  14.9095
13.1748  14.087
13.1938  13.2405
13.2128  12.6858
13.2317  11.9739
13.2507  10.7811
13.2697  9.4622
13.2887  8.25911
13.3077  7.26017
13.3267  6.18917
13.3457  5.0524
13.3646  3.87749
13.3836  2.95441
13.4026  1.93253
13.4216  0.862799
13.4406  -0.160025
13.4596  -0.91123
13.4786  -1.27936
13.4975  -1.55779
13.5165  -1.88739
13.5355  -2.11396
13.5545  -1.74991
13.5735  -1.53066
13.5925  -1.30805
13.6115  -1.17592
13.6305  -0.472353
13.6494  0.48537
13.6684  1.68054
13.6874  2.59515
13.7064  3.34082
13.7254  4.15039
13.7444  4.90986
13.7634  6.06403
13.7823  7.0425
13.8013  8.10588
13.8203  9.06214
13.8393  10.0736
13.8583  10.9729
13.8773  11.5357
13.8963  11.8809
13.9152  11.951
13.9342  11.9386
13.9532  11.3036
13.9722  10.1408
13.9912  9.04265
14.0102  8.27629
14.0292  7.66107
14.0481  6.80418
14.0671  5.58514
14.0861  4.90427
14.1051  3.90549
14.1241  3.17186
14.1431  2.53078
14.1621  2.28092
14.1811  1.5664
14.2  0.680257
14.219  0.173173
14.238  -0.0521746
14.257  -0.243154
14.276  -0.629401
14.295  -0.367895
14.314  0.0249797
14.3329  0.615139
14.3519  0.620109
14.3709  0.352304
14.3899  0.106452
14.4089  -0.220828
14.4279  -0.14483
14.4469  -0.0838555
14.4658  0.0281198
14.4848  -0.0562557
14.5038  -0.18697
14.5228  -0.158307
14.5418  -0.296066
14.5608  -0.549389
14.5798  -0.424478
14.5987  0.0109522
14.6177  0.489472
14.6367  0.489526
14.6557  0.27857
14.6747  0.350188
14.6937  0.225547
14.7127  0.324108
14.7317  0.203387
14.7506  0.054168
14.7696  0.142346
14.7886  0.255314
14.8076  0.645075
14.8266  0.556502
14.8456  0.0543074
14.8646  -0.179721
14.8835  0.150098
14.9025  0.372997
14.9215  0.178454
14.9405  0.0078551
14.9595  -0.199287
14.9785  -0.134472
14.9975  0.249455
15.0164  0.48157
15.0354  0.127681
15.0544  -0.396161
15.0734  -0.25515
15.0924  0.262142
15.1114  0.813171
15.1304  0.547542
15.1493  0.334093
15.1683  0.318364
15.1873  0.788728
15.2063  1.24985
15.2253  1.35382
15.2443  1.24721
15.2633  0.826857
15.2823  0.899126
15.3012  1.18529
15.3202  1.05057
15.3392  1.14122
15.3582  1.51237
15.3772  1.78284
15.3962  2.39058
15.4152  2.73863
15.4341  3.29671
15.4531  4.34036
15.4721  4.624
15.4911  5.13814
15.5101  5.39587
15.5291  6.09595
15.5481  6.85736
15.567  7.98082
15.586  9.07326
15.605  10.3856
15.624  11.3242
15.643  12.3336
15.662  13.306
15.681  14.8722
15.6999  16.4105
15.7189  17.5643
15.7379  18.6613
15.7569  19.5562
15.7759  20.5289
15.7949  21.363
15.8139  21.9065
15.8329  22.0997
15.8518  22.3553
15.8708  22.6544
15.8898  22.9117
15.9088  23.499
15.9278  24.1256
15.9468  24.8114
15.9658  25.1066
15.9847  25.8997
16.0037  27.0621
16.0227  28.6437
16.0417  31.4127
16.0607  34.7394
16.0797  38.6124
16.0987  43.4725
16.1176  47.8631
16.1366  51.9945
16.1556  55.6345
16.1746  59.1413
16.1936  62.6591
16.2126  65.0387
16.2316  65.8299
16.2505  63.9974
16.2695  60.2773
16.2885  54.7841
16.3075  48.5773
16.3265  42.3639
16.3455  35.4536
16.3645  29.6766
16.3834  23.6868
16.4024  19.2332
16.4214  15.4372
16.4404  12.3481
16.4594  10.207
16.4784  8.57659
16.4974  6.81071
16.5164  5.1382
16.5353  4.21043
16.5543  3.62165
16.5733  3.40557
16.5923  2.60481
16.6113  2.21436
16.6303  2.01279
16.6493  1.92138
16.6682  1.82569
16.6872  1.36142
16.7062  0.895956
16.7252  0.570391
16.7442  0.54429
16.7632  0.317183
16.7822  0.161397
16.8011  -0.0249748
16.8201  -0.349127
16.8391  -0.592701
16.8581  -1.00239
16.8771  -0.652481
16.8961  -0.681955
16.9151  -0.949127
16.934  -1.23443
16.953  -1.07469
16.972  -0.56975
16.991  -0.667583
17.01  -0.772473
17.029  -0.754833
17.048  -0.701743
17.067  -0.692242
17.0859  -0.504739
17.1049  0.101104
17.1239  0.734294
17.1429  1.11253
17.1619  1.53736
17.1809  2.30986
17.1999  3.51236
17.2188  4.61702
17.2378  6.36827
17.2568  8.63483
17.2758  11.5018
17.2948  14.1455
17.3138  17.5818
17.3328  21.2349
17.3517  26.1917
17.3707  30.5616
17.3897  35.8089
17.4087  40.6179
17.4277  46.268
17.4467  52.0911
17.4657  58.0319
17.4846  64.358
17.5036  70.2401
17.5226  76.0841
17.5416  82.2306
17.5606  88.7275
17.5796  95.9184
17.5986  103.715
17.6176  111.466
17.6365  118.386
17.6555  124.135
17.6745  128.662
17.6935  131.227
17.7125  132.054
17.7315  129.333
17.7505  124.253
17.7694  116.513
17.7884  108.045
17.8074  98.8986
17.8264  90.5281
17.8454  82.812
17.8644  76.2516
17.8834  70.3774
17.9023  65.4209
17.9213  61.707
17.9403  58.4461
17.9593  56.4561
17.9783  54.3039
17.9973  52.7941
18.0163  49.8035
18.0352  46.703
18.0542  42.2514
18.0732  37.7861
18.0922  32.7182
18.1112  28.0109
18.1302  23.2384
18.1492  19.5636
18.1682  16.5228
18.1871  14.3216
18.2061  12.4864
18.2251  10.8538
18.2441  9.81376
18.2631  9.35417
18.2821  8.96802
18.3011  8.43986
18.32  7.32101
18.339  6.86243
18.358  6.91952
18.377  7.16298
18.396  6.98857
18.415  7.30435
18.434  7.50665
18.4529  7.75873
18.4719  7.96864
18.4909  8.8427
18.5099  10.0563
18.5289  11.1929
18.5479  12.5082
18.5669  13.679
18.5858  15.3846
18.6048  17.1486
18.6238  18.5475
18.6428  19.5764
18.6618  20.7308
18.6808  22.3072
18.6998  23.3562
18.7188  23.7302
18.7377  23.4523
18.7567  23.1077
18.7757  22.4225
18.7947  21.3607
18.8137  19.9164
18.8327  18.5383
18.8517  16.2682
18.8706  13.8558
18.8896  11.8392
18.9086  9.9675
18.9276  7.82049
18.9466  5.79127
18.9656  4.5353
18.9846  3.52735
19.0035  2.69111
19.0225  1.94522
19.0415  1.36457
19.0605  0.960275
19.0795  0.614784
19.0985  0.771027
19.1175  0.549436
19.1364  0.178859
19.1554  -0.00188423
19.1744  0.432791
19.1934  1.13472
19.2124  1.33334
19.2314  2.11849
19.2504  2.9345
19.2694  4.02915
19.2883  5.67635
19.3073  7.45275
19.3263  9.54909
19.3453  11.3019
19.3643  13.6377
19.3833  16.3343
19.4023  18.6432
19.4212  20.7572
19.4402  22.6523
19.4592  24.7538
19.4782  25.7934
19.4972  26.7034
19.5162  27.4449
19.5352  28.4085
19.5541  28.564
19.5731  28.4505
19.5921  28.4205
19.6111  28.661
19.6301  28.3677
19.6491  28.2307
19.6681  28.3354
19.687  28.7706
19.706  28.5351
19.725  28.3833
19.744  28.0174
19.763  27.4498
19.782  26.0365
19.801  24.7901
19.82  23.8153
19.8389  22.7666
19.8579  21.6515
19.8769  20.5801
19.8959  19.7977
19.9149  18.7401
19.9339  17.8678
19.9529  17.0174
19.9718  16.3208
19.9908  15.7185
20.0098  14.7285
20.0288  13.887
20.0478  13.1165
20.0668  12.6922
20.0858  12.0552
20.1047  11.6185
20.1237  11.0143
20.1427  10.7327
20.1617  10.9084
20.1807  10.9404
20.1997  10.5794
20.2187  10.1235
20.2376  9.64799
20.2566  9.49924
20.2756  9.05013
20.2946  9.15653
20.3136  9.46622
20.3326  9.55848
20.3516  9.41768
20.3706  9.20124
20.3895  9.43896
20.4085  9.64742
20.4275  9.47243
20.4465  9.36748
20.4655  9.37451
20.4845  9.515
20.5035  9.55865
20.5224  9.48707
20.5414  9.80612
20.5604  10.3725
20.5794  10.6419
20.5984  10.3217
20.6174  10.1941
20.6364  10.3283
20.6553  10.6824
20.6743  11.1307
20.6933  11.4411
20.7123  11.7852
20.7313  12.1476
20.7503  12.2558
20.7693  12.3974
20.7882  12.7596
20.8072  13.2588
20.8262  13.1012
20.8452  13.2292
20.8642  13.3239
20.8832  13.5557
20.9022  13.3033
20.9212  13.2969
20.9401  13.0987
20.9591  12.8187
20.9781  12.5864
20.9971  12.3834
21.0161  11.9535
21.0351  11.0668
21.0541  10.2541
21.073  9.4658
21.092  8.63324
21.111  8.17472
21.13  7.47266
21.149  6.65419
21.168  5.7752
21.187  5.40926
21.2059  4.728
21.2249  3.6822
21.2439  2.81513
21.2629  2.26035
21.2819  1.95692
21.3009  1.53678
21.3199  0.797758
21.3388  0.411419
21.3578  0.164382
21.3768  -0.256225
21.3958  -0.470094
21.4148  -0.445166
21.4338  -0.234365
21.4528  -0.0765803
21.4717  0.0993212
21.4907  0.514598
21.5097  0.539442
21.5287  0.845397
21.5477  1.17564
21.5667  1.43089
21.5857  1.36951
21.6047  1.70321
21.6236  2.29348
21.6426  3.44991
21.6616  4.52097
21.6806  5.1079
21.6996  5.51509
21.7186  6.18009
21.7376  7.15526
21.7565  8.05377
21.7755  9.00278
21.7945  9.92854
21.8135  10.4805
21.8325  11.1258
21.8515  11.7236
21.8705  11.5489
21.8894  11.0231
21.9084  10.2859
21.9274  9.13814
21.9464  7.63243
21.9654  6.14441
21.9844  4.75995
22.0034  3.72707
22.0223  2.85508
22.0413  2.15395
22.0603  1.56293
22.0793  1.13135
22.0983  0.534123
22.1173  0.0211368
22.1363  -0.134399
22.1553  -0.0771407
22.1742  -0.106159
22.1932  -0.289106
22.2122  -0.239179
22.2312  -0.132241
22.2502  -0.0284005
22.2692  -0.0020743
22.2882  -0.108708
22.3071  -0.133476
22.3261  -0.0140558
22.3451  0.19483
22.3641  0.180715
22.3831  0.298547
22.4021  0.518218
22.4211  0.768609
22.44  0.533809
22.459  0.360687
22.478  0.186635
22.497  0.189047
22.516  0.0515668
22.535  0.161201
22.554  0.137846
22.5729  -0.0978001
22.5919  -0.280645
22.6109  -0.291987
22.6299  -0.12158
22.6489  -0.0991561
22.6679  -0.0170018
22.6869  -0.0533011
22.7059  0.070555
22.7248  0.0296625
22.7438  0.0498318
22.7628  0.372478
22.7818  0.195038
22.8008  0.0642437
22.8198  -0.0780335
22.8388  0.044591
22.8577  0.0235745
22.8767  0.150221
22.8957  0.0906677
22.9147  0.178228
22.9337  0.113806
22.9527  -0.0304316
22.9717  -0.0735798
22.9906  -0.0311953
23.0096  0.0903532
23.0286  0.198179
23.0476  0.300356
23.0666  0.427324
23.0856  0.42102
23.1046  0.419816
23.1235  0.197273
23.1425  0.0313538
23.1615  0.0275544
23.1805  0.111918
23.1995  0.199859
23.2185  0.307085
23.2375  0.447495
23.2565  0.320997
23.2754  0.0965077
23.2944  0.0157342
23.3134  0.0897121
23.3324  0.0677126
23.3514  -0.0505114
23.3704  -0.165147
23.3894  -0.0912532
23.4083  -0.131271
23.4273  -0.0360947
23.4463  0.135089
23.4653  0.135519
23.4843  0.161292
23.5033  0.122644
23.5223  0.150537
23.5412  0.245496
23.5602  0.424483
23.5792  0.568314
23.5982  0.398721
23.6172  0.337932
23.6362  0.246694
23.6552  0.248477
23.6741  0.148112
23.6931  0.0298091
23.7121  -0.0202516
23.7311  0.117564
23.7501  0.00725257
23.7691  -0.0146212
23.7881  -0.102225
23.8071  -0.0858931
23.826  -0.0557736
23.845  -0.0387788
23.864  0.00272313
23.883  0.12347
23.902  0.125861
23.921  0.0724893
23.94  0.0615983
23.9589  0.165746
23.9779  0.298932
23.9969  0.295649
24.0159  0.224559
24.0349  0.00921227
24.0539  -0.0163553
24.0729  -0.0765088
24.0918  -0.152221
24.1108  -0.169061
24.1298  0.0973528
24.1488  0.248089
24.1678  0.0805515
24.1868  -0.00652484
24.2058  -0.159098
24.2247  -0.0159214
24.2437  0.0444902