File: data/processed/Run1_XRD/2_ReMoB2_5pGPa_230psi_P1_C4_D1w_029.dat
2.82731  0.354493
2.84629  0.399727
2.86528  0.18507
2.88427  0.388013
2.90325  0.447709
2.92224  1.07139
2.94122  0.29559
2.96021  0.293914
2.9792  0.0269376
2.99818  0.890158
3.01717  1.11964
3.03616  0.610477
3.05514  0.3361
3.07413  -0.0499882
3.09311  0.333595
3.1121  1.34828
3.13109  2.03852
3.15007  2.19409
3.16906  1.9143
3.18805  1.26946
3.20703  1.30641
3.22602  1.52695
3.245  1.81545
3.26399  1.97971
3.28298  1.77529
3.30196  1.9201
3.32095  2.50204
3.33993  3.6292
3.35892  9.56794
3.37791  17.5597
3.39689  20.7592
3.41588  24.6952
3.43487  24.0823
3.45385  17.8846
3.47284  9.82988
3.49182  7.18379
3.51081  4.418
3.5298  3.13054
3.54878  1.8652
3.56777  1.43777
3.58676  0.686931
3.60574  0.66238
3.62473  0.521011
3.64371  0.646538
3.6627  0.359797
3.68169  0.681126
3.70067  1.33396
3.71966  1.75009
3.73864  1.54122
3.75763  0.668365
3.77662  0.124203
3.7956  0.142286
3.81459  0.783062
3.83358  1.20295
3.85256  1.41694
3.87155  1.17733
3.89053  0.705564
3.90952  0.183179
3.92851  0.059576
3.94749  0.574805
3.96648  1.49243
3.98547  1.69035
4.00445  0.68807
4.02344  0.151919
4.04242  -0.0114768
4.06141  0.192181
4.0804  0.812703
4.09938  0.955059
4.11837  0.963791
4.13735  0.237295
4.15634  0.286079
4.17533  0.516711
4.19431  0.983419
4.2133  1.1487
4.23229  0.87064
4.25127  0.871171
4.27026  0.265819
4.28924  0.346761
4.30823  0.457589
4.32722  0.402477
4.3462  0.484063
4.36519  0.209451
4.38418  0.386461
4.40316  0.147355
4.42215  0.330503
4.44113  0.263514
4.46012  0.417624
4.47911  0.363502
4.49809  0.768489
4.51708  0.982424
4.53606  0.82206
4.55505  0.437465
4.57404  0.821725
4.59302  0.780324
4.61201  0.736517
4.631  0.749828
4.64998  0.98495
4.66897  1.04984
4.68795  1.20461
4.70694  1.46633
4.72593  1.56762
4.74491  1.47048
4.7639  1.21977
4.78289  0.179598
4.80187  -0.373014
4.82086  -0.058406
4.83984  0.425396
4.85883  0.981767
4.87782  1.3098
4.8968  1.79319
4.91579  1.59959
4.93478  1.69667
4.95376  1.62593
4.97275  1.1571
4.99173  0.463259
5.01072  -0.0132812
5.02971  0.286703
5.04869  0.665504
5.06768  0.873985
5.08666  0.457984
5.10565  0.176424
5.12464  0.12149
5.14362  0.338686
5.16261  0.897457
5.1816  1.18853
5.20058  0.521029
5.21957  0.683436
5.23855  1.23911
5.25754  1.14108
5.27653  0.592264
5.29551  -0.0383871
5.3145  0.046312
5.33349  0.891158
5.35247  1.59795
5.37146  1.04815
5.39044  0.476023
5.40943  0.0586066
5.42842  0.319376
5.4474  0.362529
5.46639  0.493496
5.48537  0.399523
5.50436  0.356878
5.52335  -0.0134544
5.54233  -0.120725
5.56132  0.119673
5.58031  0.400712
5.59929  1.13788
5.61828  1.1541
5.63726  0.651076
5.65625  0.547092
5.67524  0.207849
5.69422  0.61501
5.71321  0.430018
5.7322  0.445433
5.75118  0.614856
5.77017  0.909081
5.78915  1.37106
5.80814  1.49273
5.82713  1.12239
5.84611  0.553415
5.8651  0.133212
5.88408  0.281657
5.90307  0.782915
5.92206  0.985052
5.94104  0.819739
5.96003  0.796615
5.97902  1.15485
5.998  0.997221
6.01699  0.912857
6.03597  0.566864
6.05496  0.246559
6.07395  -0.115619
6.09293  0.131582
6.11192  -0.0908457
6.13091  0.0639989
6.14989  0.213166
6.16888  0.620747
6.18786  0.615662
6.20685  1.01891
6.22584  1.12485
6.24482  0.880818
6.26381  0.605569
6.28279  0.632445
6.30178  0.736021
6.32077  0.925264
6.33975  0.828463
6.35874  0.957732
6.37773  0.850469
6.39671  1.54644
6.4157  2.82688
6.43468  3.87841
6.45367  5.1297
6.47266  5.42737
6.49164  5.6821
6.51063  4.97191
6.52962  4.4805
6.5486  3.47519
6.56759  3.07338
6.58657  2.04787
6.60556  1.3414
6.62455  1.77077
6.64353  2.27466
6.66252  3.16665
6.6815  4.08231
6.70049  5.90167
6.71948  11.1781
6.73846  17.1978
6.75745  40.1418
6.77644  68.844
6.79542  95.3447
6.81441  208.652
6.83339  216.749
6.85238  195.633
6.87137  165.328
6.89035  139.195
6.90934  65.0378
6.92833  53.4421
6.94731  32.3208
6.9663  19.6127
6.98528  15.3853
7.00427  10.1097
7.02326  8.32577
7.04224  5.91388
7.06123  4.37112
7.08021  3.7909
7.0992  3.12996
7.11819  2.68885
7.13717  2.12454
7.15616  2.12778
7.17515  1.81793
7.19413  1.72371
7.21312  1.43118
7.2321  1.06182
7.25109  0.458732
7.27008  0.00626913
7.28906  -0.224646
7.30805  0.328475
7.32704  0.964031
7.34602  1.34394
7.36501  1.31557
7.38399  1.31345
7.40298  1.56869
7.42197  1.84049
7.44095  2.07103
7.45994  1.66532
7.47892  1.27206
7.49791  1.22625
7.5169  1.29127
7.53588  1.16604
7.55487  1.60425
7.57386  1.69609
7.59284  1.49905
7.61183  0.901106
7.63081  0.74868
7.6498  0.963365
7.66879  1.14362
7.68777  1.24235
7.70676  1.09604
7.72575  0.818074
7.74473  1.00369
7.76372  1.08766
7.7827  0.832719
7.80169  0.369451
7.82068  -0.1815
7.83966  -0.0376105
7.85865  0.632786
7.87764  1.19202
7.89662  1.16146
7.91561  0.542807
7.93459  -0.000835041
7.95358  -0.0528834
7.97257  -0.110056
7.99155  0.260003
8.01054  0.309378
8.02952  0.362568
8.04851  0.366212
8.0675  0.633899
8.08648  0.571697
8.10547  0.693454
8.12446  0.505976
8.14344  0.721203
8.16243  0.787637
8.18141  0.617613
8.2004  0.551166
8.21939  0.230127
8.23837  0.456468
8.25736  0.742439
8.27635  1.4123
8.29533  1.19097
8.31432  0.908865
8.3333  0.600095
8.35229  0.844633
8.37128  0.96674
8.39026  0.909173
8.40925  0.660207
8.42823  0.275423
8.44722  0.359463
8.46621  0.289942
8.48519  0.657006
8.50418  0.594698
8.52317  0.64137
8.54215  0.359132
8.56114  0.290641
8.58012  0.397153
8.59911  0.655798
8.6181  0.964094
8.63708  0.811484
8.65607  0.781219
8.67506  0.0253923
8.69404  0.127307
8.71303  0.0176586
8.73201  -0.0129494
8.751  -0.480955
8.76999  -0.645214
8.78897  -0.538543
8.80796  -0.203482
8.82694  0.189647
8.84593  0.671873
8.86492  0.606491
8.8839  0.758996
8.90289  0.550314
8.92188  1.31298
8.94086  2.1174
8.95985  3.40198
8.97883  4.72064
8.99782  7.24884
9.01681  12.3866
9.03579  22.0153
9.05478  41.5834
9.07377  80.7039
9.09275  160.663
9.11174  302.023
9.13072  466.351
9.14971  692.567
9.1687  916.58
9.18768  1201.73
9.20667  1545.61
9.22565  1720.56
9.24464  1689.37
9.26363  1457.24
9.28261  1290.11
9.3016  1132.07
9.32059  1023.29
9.33957  947.3
9.35856  902.022
9.37754  862.855
9.39653  797.025
9.41552  704.412
9.4345  580.586
9.45349  461.465
9.47248  356.964
9.49146  273.378
9.51045  214.782
9.52943  170.45
9.54842  136.249
9.56741  106.781
9.58639  82.0191
9.60538  61.5391
9.62436  46.2258
9.64335  35.6587
9.66234  26.9567
9.68132  20.5193
9.70031  15.7222
9.7193  11.5868
9.73828  8.10564
9.75727  5.05606
9.77625  3.09479
9.79524  1.6189
9.81423  0.491357
9.83321  -0.293408
9.8522  -0.736935
9.87119  -0.372814
9.89017  0.054878
9.90916  1.09881
9.92814  1.9785
9.94713  3.08752
9.96612  4.39544
9.9851  5.09249
10.0041  4.69831
10.0231  3.91285
10.0421  2.67952
10.061  2.01777
10.08  1.54496
10.099  2.40672
10.118  4.66713
10.137  8.70264
10.156  14.3575
10.175  26.4443
10.194  36.948
10.2129  54.2848
10.2319  67.2903
10.2509  74.0228
10.2699  68.3563
10.2889  59.9995
10.3079  49.8669
10.3269  42.1693
10.3458  35.7264
10.3648  30.0558
10.3838  25.2485
10.4028  22.2214
10.4218  20.3408
10.4408  19.0719
10.4598  18.5824
10.4787  18.175
10.4977  18.2469
10.5167  18.6655
10.5357  20.787
10.5547  21.8812
10.5737  24.4008
10.5927  27.1585
10.6116  31.1964
10.6306  37.5139
10.6496  44.4426
10.6686  59.7817
10.6876  75.6726
10.7066  101.171
10.7256  137.286
10.7446  171.03
10.7635  226.704
10.7825  266.127
10.8015  323.668
10.8205  343.909
10.8395  372.858
10.8585  346.039
10.8775  314.542
10.8964  245.898
10.9154  193.21
10.9344  127.271
10.9534  90.7889
10.9724  62.2609
10.9914  42.7551
11.0104  32.4203
11.0293  23.5815
11.0483  18.0865
11.0673  13.5391
11.0863  10.5433
11.1053  8.71181
11.1243  7.44874
11.1433  6.10648
11.1622  5.40106
11.1812  4.96198
11.2002  5.07922
11.2192  5.14835
11.2382  5.02289
11.2572  5.75305
11.2762  6.60418
11.2951  7.71946
11.3141  7.78546
11.3331  7.61363
11.3521  6.8982
11.3711  6.40268
11.3901  5.11795
11.4091  4.37032
11.4281  3.36756
11.447  2.60139
11.466  1.55368
11.485  0.806779
11.504  0.245996
11.523  -0.328126
11.542  -0.395335
11.561  -0.313395
11.5799  -0.373588
11.5989  -0.255084
11.6179  -0.838178
11.6369  -0.897023
11.6559  -1.0703
11.6749  -0.814181
11.6939  -0.804642
11.7128  -0.368521
11.7318  0.0561155
11.7508  0.532603
11.7698  1.6163
11.7888  2.4477
11.8078  3.70303
11.8268  3.44347
11.8457  2.97516
11.8647  2.13618
11.8837  1.74434
11.9027  1.99989
11.9217  2.11666
11.9407  2.43214
11.9597  3.1715
11.9787  4.7031
11.9976  7.67419
12.0166  12.4147
12.0356  19.7527
12.0546  28.8151
12.0736  40.1567
12.0926  52.5987
12.1116  65.0315
12.1305  75.484
12.1495  82.6066
12.1685  86.4792
12.1875  80.8142
12.2065  72.3853
12.2255  63.2241
12.2445  55.1981
12.2634  47.7493
12.2824  42.4978
12.3014  37.3947
12.3204  33.4302
12.3394  29.6946
12.3584  27.115
12.3774  24.5788
12.3963  21.858
12.4153  19.6782
12.4343  17.654
12.4533  16.4464
12.4723  15.7305
12.4913  15.6534
12.5103  15.6282
12.5293  16.1943
12.5482  16.2984
12.5672  17.0458
12.5862  18.2134
12.6052  19.5832
12.6242  22.2
12.6432  23.7472
12.6622  25.8721
12.6811  27.8367
12.7001  29.1327
12.7191  31.9956
12.7381  34.4129
12.7571  38.8541
12.7761  45.1132
12.7951  51.9587
12.814  63.7941
12.833  75.7571
12.852  90.9356
12.871  106.706
12.89  117.512
12.909  125.878
12.928  125.05
12.9469  121.205
12.9659  114.097
12.9849  108.357
13.0039  98.7318
13.0229  89.3393
13.0419  78.0812
13.0609  65.4981
13.0799  55.225
13.0988  43.0372
13.1178  34.8608
13.1368  28.3419
13.1558  22.525
13.1748  18.374
13.1938  14.3241
13.2128  11.3606
13.2317  9.13505
13.2507  6.94515
13.2697  5.99131
13.2887  4.95596
13.3077  4.23704
13.3267  3.20374
13.3457  2.43241
13.3646  1.98963
13.3836  0.905831
13.4026  -0.0987471
13.4216  -0.211139
13.4406  -0.0748435
13.4596  0.00969286
13.4786  -0.23237
13.4975  -0.0778557
13.5165  -0.0851393
13.5355  0.177927
13.5545  0.603283
13.5735  1.5198
13.5925  3.14168
13.6115  4.36636
13.6305  7.2946
13.6494  9.178
13.6684  12.6265
13.6874  14.6176
13.7064  16.5018
13.7254  16.8984
13.7444  16.1798
13.7634  13.002
13.7823  11.3561
13.8013  8.78583
13.8203  6.70837
13.8393  5.72272
13.8583  4.21197
13.8773  3.2071
13.8963  1.48443
13.9152  0.478483
13.9342  0.379997
13.9532  0.417145
13.9722  0.449344
13.9912  0.21406
14.0102  0.146706
14.0292  0.403585
14.0481  0.347721
14.0671  0.304299
14.0861  0.106176
14.1051  0.309832
14.1241  0.301717
14.1431  0.134987
14.1621  -0.319616
14.1811  -0.471697
14.2  -0.321709
14.219  0.177404
14.238  0.531809
14.257  0.348846
14.276  -0.104761
14.295  -0.326913
14.314  -0.0198777
14.3329  0.358179
14.3519  0.829189
14.3709  1.17606
14.3899  1.22187
14.4089  0.952452
14.4279  0.80137
14.4469  0.692692
14.4658  0.769579
14.4848  1.02399
14.5038  0.974598
14.5228  0.622325
14.5418  0.493739
14.5608  0.235781
14.5798  0.175515
14.5987  0.00163671
14.6177  0.124393
14.6367  0.171098
14.6557  0.372194
14.6747  0.345707
14.6937  0.423906
14.7127  0.415173
14.7317  0.773331
14.7506  0.554522
14.7696  0.148439
14.7886  -0.0300889
14.8076  -0.20999
14.8266  -0.15185
14.8456  -0.201986
14.8646  -0.2122
14.8835  0.119151
14.9025  0.00512533
14.9215  0.0515939
14.9405  -0.200311
14.9595  -0.310726
14.9785  -0.28465
14.9975  0.202463
15.0164  0.708699
15.0354  0.853078
15.0544  0.865019
15.0734  0.825598
15.0924  1.3794
15.1114  1.33378
15.1304  1.44352
15.1493  1.35915
15.1683  1.80608
15.1873  2.12905
15.2063  2.39556
15.2253  2.5327
15.2443  2.89149
15.2633  3.27285
15.2823  3.96215
15.3012  4.88508
15.3202  5.38343
15.3392  6.67712
15.3582  8.53737
15.3772  11.1028
15.3962  13.9576
15.4152  18.2315
15.4341  23.7548
15.4531  30.9432
15.4721  40.3694
15.4911  51.8555
15.5101  66.3468
15.5291  78.8182
15.5481  90.4157
15.567  94.0549
15.586  94.8213
15.605  89.8685
15.624  83.8066
15.643  75.7786
15.662  66.9724
15.681  56.882
15.6999  47.9484
15.7189  40.803
15.7379  36.0491
15.7569  32.7982
15.7759  31.2913
15.7949  30.6144
15.8139  30.6334
15.8329  30.6638
15.8518  31.3942
15.8708  30.755
15.8898  29.6772
15.9088  27.6096
15.9278  25.6918
15.9468  24.0293
15.9658  22.5978
15.9847  21.1522
16.0037  19.6455
16.0227  17.3114
16.0417  15.3325
16.0607  13.6463
16.0797  12.4768
16.0987  11.5818
16.1176  10.9752
16.1366  10.2176
16.1556  9.39316
16.1746  7.99288
16.1936  7.00969
16.2126  6.08964
16.2316  5.52901
16.2505  4.66983
16.2695  4.09829
16.2885  3.53544
16.3075  3.11029
16.3265  2.48089
16.3455  2.29882
16.3645  1.95217
16.3834  1.52741
16.4024  1.1049
16.4214  1.11501
16.4404  1.19067
16.4594  1.01019
16.4784  0.941094
16.4974  0.643694
16.5164  0.506827
16.5353  0.614917
16.5543  0.732397
16.5733  0.585839
16.5923  0.222681
16.6113  -0.0577131
16.6303  -0.0211913
16.6493  0.153625
16.6682  0.0523726
16.6872  -0.0714386
16.7062  -0.285548
16.7252  -0.220336
16.7442  -0.107139
16.7632  0.318115
16.7822  0.116367
16.8011  -0.288662
16.8201  -0.566544
16.8391  -0.518612
16.8581  -0.555757
16.8771  -0.493974
16.8961  -0.276231
16.9151  0.00596167
16.934  0.00173851
16.953  -0.250594
16.972  -0.178538
16.991  0.373821
17.01  1.24202
17.029  1.91478
17.048  2.99761
17.067  4.41848
17.0859  6.43283
17.1049  9.45637
17.1239  12.9351
17.1429  17.4207
17.1619  21.6915
17.1809  26.3206
17.1999  31.1757
17.2188  37.05
17.2378  44.6805
17.2568  52.1958
17.2758  61.5583
17.2948  71.7132
17.3138  80.4622
17.3328  89.3442
17.3517  91.7141
17.3707  94.1837
17.3897  95.0021
17.4087  99.1282
17.4277  107.683
17.4467  117.117
17.4657  131.772
17.4846  147.881
17.5036  154.576
17.5226  156.832
17.5416  156.002
17.5606  150.048
17.5796  140.856
17.5986  133.254
17.6176  120.3
17.6365  107.821
17.6555  94.1619
17.6745  82.5864
17.6935  69.7067
17.7125  57.5221
17.7315  46.0913
17.7505  35.1245
17.7694  28.0773
17.7884  22.1703
17.8074  18.2674
17.8264  14.859
17.8454  12.1565
17.8644  10.1512
17.8834  8.30269
17.9023  6.5759
17.9213  4.73218
17.9403  3.8615
17.9593  3.31654
17.9783  2.93681
17.9973  1.74346
18.0163  0.98822
18.0352  0.834321
18.0542  1.00985
18.0732  0.769676
18.0922  0.40774
18.1112  0.849927
18.1302  2.04156
18.1492  3.13736
18.1682  4.8202
18.1871  7.57366
18.2061  11.6801
18.2251  16.5445
18.2441  22.4651
18.2631  29.3709
18.2821  37.6627
18.3011  46.6793
18.32  55.4191
18.339  63.4754
18.358  70.6406
18.377  76.5112
18.396  81.2028
18.415  84.7408
18.434  86.688
18.4529  86.933
18.4719  85.7451
18.4909  83.3051
18.5099  80.408
18.5289  77.8796
18.5479  74.8517
18.5669  73.4742
18.5858  71.701
18.6048  69.6126
18.6238  66.3335
18.6428  61.196
18.6618  53.9438
18.6808  44.8911
18.6998  36.6539
18.7188  29.5889
18.7377  24.4827
18.7567  21.0586
18.7757  19.0332
18.7947  18.303
18.8137  18.3934
18.8327  20.1087
18.8517  22.7735
18.8706  27.105
18.8896  32.5244
18.9086  38.2505
18.9276  43.1097
18.9466  46.9118
18.9656  48.8794
18.9846  51.7519
19.0035  55.2504
19.0225  58.0648
19.0415  62.1418
19.0605  61.7498
19.0795  60.9335
19.0985  58.3717
19.1175  55.7092
19.1364  51.2548
19.1554  49.4947
19.1744  47.3153
19.1934  45.9756
19.2124  44.4853
19.2314  41.5431
19.2504  37.9284
19.2694  34.6996
19.2883  31.9316
19.3073  28.2649
19.3263  25.6264
19.3453  21.9344
19.3643  19.5884
19.3833  16.552
19.4023  13.6227
19.4212  10.9893
19.4402  10.0317
19.4592  9.30174
19.4782  8.61325
19.4972  7.53662
19.5162  6.95038
19.5352  3.59481
19.5541  2.90189
19.5731  2.09965
19.5921  1.47009
19.6111  1.00528
19.6301  0.206712
19.6491  0.116024
19.6681  0.214147
19.687  0.579999
19.706  0.311789
19.725  0.593149
19.744  1.16351
19.763  1.63069
19.782  1.55236
19.801  1.69779
19.82  2.3871
19.8389  2.93593
19.8579  3.55207
19.8769  4.29365
19.8959  4.76859
19.9149  5.30174
19.9339  6.17877
19.9529  7.49563
19.9718  8.71316
19.9908  9.5813
20.0098  10.4489
20.0288  11.3938
20.0478  12.215
20.0668  13.2272
20.0858  14.0012
20.1047  14.5855
20.1237  15.3782
20.1427  16.3824
20.1617  17.4593
20.1807  18.655
20.1997  20.0358
20.2187  21.2983
20.2376  22.7009
20.2566  24.4243
20.2756  25.6102
20.2946  26.4018
20.3136  26.5586
20.3326  29.2722
20.3516  32.499
20.3706  37.7502
20.3895  42.447
20.4085  47.851
20.4275  52.7312
20.4465  60.9181
20.4655  67.4552
20.4845  71.4441
20.5035  70.698
20.5224  69.3746
20.5414  65.1624
20.5604  61.5155
20.5794  59.4787
20.5984  58.2987
20.6174  58.2914
20.6364  57.852
20.6553  55.576
20.6743  52.007
20.6933  48.6507
20.7123  44.9053
20.7313  40.8254
20.7503  37.2937
20.7693  32.9447
20.7882  29.3406
20.8072  26.8673
20.8262  23.9072
20.8452  21.1901
20.8642  20.4056
20.8832  19.7968
20.9022  20.4639
20.9212  21.7491
20.9401  23.4508
20.9591  25.7852
20.9781  29.7853
20.9971  34.9519
21.0161  41.2796
21.0351  47.5062
21.0541  52.6852
21.073  57.8123
21.092  64.1465
21.111  69.9837
21.13  72.0164
21.149  68.628
21.168  61.4708
21.187  52.8933
21.2059  43.5274
21.2249  34.3676
21.2439  25.7318
21.2629  18.756
21.2819  13.7359
21.3009  9.93334
21.3199  7.43762
21.3388  5.60651
21.3578  4.20321
21.3768  2.90394
21.3958  2.07463
21.4148  1.18062
21.4338  0.83606
21.4528  0.431974
21.4717  0.0710784
21.4907  -0.444929
21.5097  -0.390365
21.5287  -0.356766
21.5477  -0.262426
21.5667  -0.239652
21.5857  -0.355399
21.6047  -0.414628
21.6236  -0.363244
21.6426  -0.154904
21.6616  0.182756
21.6806  0.214847
21.6996  0.103888
21.7186  0.159923
21.7376  0.405098
21.7565  0.281515
21.7755  0.547749
21.7945  0.829265
21.8135  0.882149
21.8325  0.765977
21.8515  0.553837
21.8705  0.224814
21.8894  0.0548698
21.9084  0.19182
21.9274  0.105492
21.9464  -0.0514089
21.9654  -0.181135
21.9844  -0.120001
22.0034  -0.0608854
22.0223  -0.0155324
22.0413  0.032094
22.0603  0.0910219
22.0793  0.0158171
22.0983  -0.303856
22.1173  -0.419028
22.1363  -0.24644
22.1553  -0.114621
22.1742  -0.077757
22.1932  -0.172387
22.2122  -0.132939
22.2312  -0.11718
22.2502  0.0378558
22.2692  0.107671
22.2882  0.260528
22.3071  0.416297
22.3261  0.495785
22.3451  0.350435
22.3641  0.176567
22.3831  0.332574
22.4021  0.510638
22.4211  0.439364
22.44  0.19146
22.459  0.0693514
22.478  0.206404
22.497  0.416086
22.516  0.336989
22.535  0.130703
22.554  0.134209
22.5729  0.13586
22.5919  0.235049
22.6109  0.12859
22.6299  -0.13768
22.6489  -0.326924
22.6679  -0.00249762
22.6869  0.136299
22.7059  0.0689104
22.7248  -0.26962
22.7438  -0.0450668
22.7628  0.0967862
22.7818  0.33925
22.8008  0.259769
22.8198  0.257489
22.8388  0.192778
22.8577  0.547018
22.8767  0.615916
22.8957  0.659194
22.9147  0.484922
22.9337  0.519377
22.9527  0.523835
22.9717  0.532121
22.9906  0.346198
23.0096  0.150004
23.0286  0.133407
23.0476  0.242075
23.0666  0.34057
23.0856  0.197616
23.1046  0.12528
23.1235  -0.0462139
23.1425  -0.116686
23.1615  -0.134021
23.1805  0.0799155
23.1995  0.298378
23.2185  0.146705
23.2375  0.0124007
23.2565  -0.0747711
23.2754  0.103723
23.2944  0.134225
23.3134  0.207468
23.3324  0.237812
23.3514  0.369887
23.3704  0.440791
23.3894  0.454414
23.4083  0.305804
23.4273  0.208255
23.4463  -0.0519198
23.4653  -0.0584615
23.4843  -0.000689815
23.5033  0.443181
23.5223  0.365112
23.5412  0.3731
23.5602  0.337412
23.5792  0.50963
23.5982  0.495583
23.6172  0.312485
23.6362  0.198422
23.6552  0.0762061
23.6741  -0.00379859
23.6931  0.0283902
23.7121  0.183706
23.7311  0.267285
23.7501  0.423704
23.7691  0.597556
23.7881  0.59622
23.8071  0.363083
23.826  0.167271
23.845  0.395732
23.864  0.654458
23.883  0.39766
23.902  0.0863047
23.921  -0.222539
23.94  -0.048669
23.9589  0.0427382
23.9779  0.264748
23.9969  0.211076
24.0159  0.0869276
24.0349  0.0995523
24.0539  -0.0694837
24.0729  0.0695696
24.0918  0.169528
24.1108  0.147523
24.1298  -0.14065
24.1488  -0.14464
24.1678  -0.0103769
24.1868  -0.00287927
24.2058  0.061531
24.2247  0.0248652
24.2437  -0.0254312