File: data/processed/Run1_XRD/3_ReMoB2_10pGPa_260psi_P1_C4_D1w_035.dat
2.82731  0.417695
2.84629  0.279506
2.86528  -0.0358744
2.88427  0.396794
2.90325  0.423694
2.92224  -0.00509925
2.94122  -0.00280045
2.96021  -0.143076
2.9792  0.877006
2.99818  1.46883
3.01717  1.95042
3.03616  1.90581
3.05514  1.26893
3.07413  0.836989
3.09311  0.720678
3.1121  1.68493
3.13109  2.00155
3.15007  1.20702
3.16906  0.600238
3.18805  0.422727
3.20703  1.24543
3.22602  1.43341
3.245  1.88791
3.26399  1.93319
3.28298  2.28173
3.30196  1.98827
3.32095  1.81103
3.33993  2.83138
3.35892  3.79534
3.37791  5.30086
3.39689  7.13277
3.41588  9.53089
3.43487  10.2693
3.45385  9.48392
3.47284  7.09656
3.49182  5.82951
3.51081  4.35579
3.5298  3.07871
3.54878  2.217
3.56777  1.58671
3.58676  1.30362
3.60574  1.21805
3.62473  1.06644
3.64371  1.29069
3.6627  0.89644
3.68169  0.730906
3.70067  0.888637
3.71966  1.27944
3.73864  1.66985
3.75763  1.41392
3.77662  1.31419
3.7956  0.956983
3.81459  1.11932
3.83358  1.01703
3.85256  1.20442
3.87155  1.38091
3.89053  1.39244
3.90952  1.12457
3.92851  1.39866
3.94749  1.59079
3.96648  1.73793
3.98547  1.62343
4.00445  1.67162
4.02344  1.25812
4.04242  0.144146
4.06141  -0.0707359
4.0804  -0.0778237
4.09938  0.724633
4.11837  0.705808
4.13735  1.33211
4.15634  1.44658
4.17533  1.31964
4.19431  0.995541
4.2133  0.732595
4.23229  0.921433
4.25127  1.03877
4.27026  1.12673
4.28924  1.37661
4.30823  1.62235
4.32722  1.47578
4.3462  0.867817
4.36519  0.654033
4.38418  0.485403
4.40316  0.683956
4.42215  0.803668
4.44113  0.64902
4.46012  0.830009
4.47911  0.157805
4.49809  0.0644499
4.51708  0.0804248
4.53606  0.577846
4.55505  0.64136
4.57404  0.659728
4.59302  0.290089
4.61201  0.451517
4.631  0.321075
4.64998  0.197714
4.66897  -0.188977
4.68795  0.393171
4.70694  0.946683
4.72593  1.4238
4.74491  1.44504
4.7639  1.41729
4.78289  1.08306
4.80187  0.995819
4.82086  0.473429
4.83984  0.458299
4.85883  0.0303117
4.87782  0.0900187
4.8968  0.555558
4.91579  0.843047
4.93478  0.609209
4.95376  0.491812
4.97275  0.0523219
4.99173  0.344738
5.01072  0.566823
5.02971  0.436495
5.04869  0.231346
5.06768  0.417353
5.08666  0.575499
5.10565  0.868633
5.12464  0.647413
5.14362  0.214482
5.16261  -0.0199035
5.1816  -0.185718
5.20058  -0.11152
5.21957  -0.0492118
5.23855  0.499208
5.25754  0.91597
5.27653  1.78612
5.29551  1.74898
5.3145  1.81277
5.33349  1.95989
5.35247  2.29118
5.37146  2.41368
5.39044  1.91268
5.40943  1.63269
5.42842  1.30609
5.4474  0.554643
5.46639  0.293333
5.48537  0.18749
5.50436  0.228543
5.52335  -0.0874347
5.54233  0.188559
5.56132  1.05521
5.58031  1.37298
5.59929  1.05219
5.61828  1.16689
5.63726  1.50459
5.65625  1.89086
5.67524  1.55145
5.69422  1.27799
5.71321  1.47786
5.7322  1.80971
5.75118  1.64978
5.77017  0.769699
5.78915  0.0509724
5.80814  0.215799
5.82713  0.593991
5.84611  1.13397
5.8651  1.13004
5.88408  0.772172
5.90307  0.550109
5.92206  0.526962
5.94104  1.08352
5.96003  0.645714
5.97902  0.606013
5.998  0.397974
6.01699  0.522731
6.03597  0.248828
6.05496  0.289185
6.07395  0.718724
6.09293  0.873275
6.11192  0.682237
6.13091  0.944735
6.14989  0.85229
6.16888  0.670954
6.18786  0.00836807
6.20685  -0.128008
6.22584  0.437247
6.24482  0.675126
6.26381  0.843465
6.28279  0.746698
6.30178  0.820063
6.32077  0.982347
6.33975  1.00245
6.35874  0.822024
6.37773  0.716587
6.39671  0.384762
6.4157  0.54
6.43468  0.754269
6.45367  2.11219
6.47266  3.98626
6.49164  5.75469
6.51063  6.08241
6.52962  5.08054
6.5486  3.44551
6.56759  2.94405
6.58657  2.29316
6.60556  2.30248
6.62455  2.08422
6.64353  1.99691
6.66252  2.1061
6.6815  2.30905
6.70049  2.94326
6.71948  4.6136
6.73846  6.71434
6.75745  9.54869
6.77644  13.866
6.79542  18.1519
6.81441  24.5914
6.83339  28.5328
6.85238  32.6836
6.87137  34.0289
6.89035  33.0972
6.90934  30.2606
6.92833  28.0896
6.94731  24.0308
6.9663  19.4253
6.98528  15.7028
7.00427  11.5428
7.02326  9.25585
7.04224  6.36812
7.06123  4.48327
7.08021  2.87752
7.0992  2.1918
7.11819  2.0832
7.13717  2.24072
7.15616  1.75103
7.17515  1.10052
7.19413  0.732401
7.21312  0.669612
7.2321  0.612683
7.25109  0.0331914
7.27008  0.0955665
7.28906  -0.0277305
7.30805  -0.0521074
7.32704  0.181854
7.34602  0.62678
7.36501  1.0248
7.38399  0.705352
7.40298  0.536204
7.42197  0.197177
7.44095  0.345574
7.45994  0.510544
7.47892  0.84236
7.49791  0.864089
7.5169  1.06075
7.53588  0.782422
7.55487  0.363024
7.57386  0.516059
7.59284  0.294787
7.61183  0.346953
7.63081  0.101023
7.6498  0.495339
7.66879  0.640788
7.68777  0.608634
7.70676  0.261154
7.72575  0.31925
7.74473  0.716239
7.76372  1.08149
7.7827  0.742682
7.80169  0.210347
7.82068  -0.113259
7.83966  -0.0532737
7.85865  0.319882
7.87764  0.154237
7.89662  0.375032
7.91561  0.353097
7.93459  0.426823
7.95358  0.425389
7.97257  0.752452
7.99155  0.551264
8.01054  0.4589
8.02952  0.0306942
8.04851  0.198798
8.0675  0.357066
8.08648  0.614991
8.10547  0.813302
8.12446  0.500524
8.14344  0.126754
8.16243  -0.0675326
8.18141  0.171772
8.2004  0.41899
8.21939  0.3769
8.23837  0.876249
8.25736  0.918757
8.27635  0.962272
8.29533  0.903008
8.31432  0.783543
8.3333  0.584598
8.35229  0.337602
8.37128  0.287823
8.39026  0.467525
8.40925  0.0467953
8.42823  0.341131
8.44722  0.358193
8.46621  0.614001
8.48519  0.70645
8.50418  0.878208
8.52317  0.877391
8.54215  0.740582
8.56114  0.598162
8.58012  0.421881
8.59911  0.0249699
8.6181  -0.122921
8.63708  -0.174559
8.65607  0.00118101
8.67506  0.176633
8.69404  0.294207
8.71303  0.139396
8.73201  -0.00563054
8.751  -0.148544
8.76999  -0.156875
8.78897  -0.351679
8.80796  -0.139273
8.82694  -0.12619
8.84593  -0.00639593
8.86492  -0.0481102
8.8839  -0.0857495
8.90289  -0.045732
8.92188  0.205499
8.94086  0.729683
8.95985  1.515
8.97883  2.16872
8.99782  3.30929
9.01681  5.68755
9.03579  9.72564
9.05478  17.0539
9.07377  31.6672
9.09275  52.5326
9.11174  84.7795
9.13072  129.091
9.14971  195.558
9.1687  290.245
9.18768  414.008
9.20667  552.966
9.22565  700.09
9.24464  846.107
9.26363  985.115
9.28261  1123.92
9.3016  1245.42
9.32059  1332.92
9.33957  1376.57
9.35856  1397.09
9.37754  1334.84
9.39653  1180.1
9.41552  938.315
9.4345  716.131
9.45349  528.532
9.47248  406.807
9.49146  322.95
9.51045  264.569
9.52943  223.965
9.54842  195.287
9.56741  173.737
9.58639  151.333
9.60538  124.537
9.62436  94.9102
9.64335  67.4559
9.66234  46.0576
9.68132  32.2841
9.70031  22.8201
9.7193  16.414
9.73828  11.4575
9.75727  7.63111
9.77625  4.66655
9.79524  2.5066
9.81423  0.934522
9.83321  0.306086
9.8522  -0.387177
9.87119  -0.24421
9.89017  0.140944
9.90916  0.738148
9.92814  2.17158
9.94713  3.38655
9.96612  5.9616
9.9851  7.98709
10.0041  9.28662
10.0231  11.4964
10.0421  11.8064
10.061  15.1599
10.08  17.0794
10.099  22.0356
10.118  28.5352
10.137  32.2623
10.156  28.7283
10.175  31.1907
10.194  33.8136
10.2129  43.6538
10.2319  53.1622
10.2509  71.0278
10.2699  83.4184
10.2889  87.8009
10.3079  75.7478
10.3269  71.3196
10.3458  70.3244
10.3648  65.1079
10.3838  64.3707
10.4028  69.0792
10.4218  64.6139
10.4408  55.8208
10.4598  53.2276
10.4787  48.2706
10.4977  37.3401
10.5167  33.0138
10.5357  31.1887
10.5547  27.765
10.5737  24.6215
10.5927  22.7242
10.6116  21.2807
10.6306  20.4532
10.6496  20.217
10.6686  20.6466
10.6876  21.9679
10.7066  24.4963
10.7256  27.6781
10.7446  31.7157
10.7635  36.8776
10.7825  41.6871
10.8015  49.8085
10.8205  56.4861
10.8395  65.4019
10.8585  70.8456
10.8775  75.0903
10.8964  73.2296
10.9154  66.3779
10.9344  54.2867
10.9534  43.7183
10.9724  33.6851
10.9914  24.1155
11.0104  18.5243
11.0293  13.3299
11.0483  10.0449
11.0673  7.25999
11.0863  5.07554
11.1053  3.52884
11.1243  2.75506
11.1433  2.20444
11.1622  2.1165
11.1812  1.82328
11.2002  1.54843
11.2192  1.30043
11.2382  1.15529
11.2572  1.14525
11.2762  1.95947
11.2951  2.98836
11.3141  4.12964
11.3331  4.8958
11.3521  5.37256
11.3711  6.04631
11.3901  6.18801
11.4091  5.58551
11.4281  4.1508
11.447  2.96018
11.466  1.63685
11.485  0.807503
11.504  0.0466527
11.523  -0.523509
11.542  -0.511805
11.561  -0.316117
11.5799  0.155064
11.5989  0.185254
11.6179  -0.450866
11.6369  -0.460915
11.6559  -0.514882
11.6749  -0.506464
11.6939  -0.453108
11.7128  -0.0857318
11.7318  0.190201
11.7508  0.447433
11.7698  0.64057
11.7888  0.581027
11.8078  0.438135
11.8268  0.607857
11.8457  0.579427
11.8647  0.746728
11.8837  1.03792
11.9027  1.8354
11.9217  2.86267
11.9407  3.6195
11.9597  4.28098
11.9787  5.20365
11.9976  6.22776
12.0166  7.49739
12.0356  9.77705
12.0546  13.5959
12.0736  18.7545
12.0926  25.3094
12.1116  32.6323
12.1305  41.4066
12.1495  50.3176
12.1685  57.294
12.1875  60.7333
12.2065  60.4848
12.2255  56.4751
12.2445  51.3898
12.2634  45.0686
12.2824  39.9649
12.3014  34.9831
12.3204  30.1768
12.3394  26.7264
12.3584  23.9985
12.3774  21.6533
12.3963  19.6557
12.4153  18.0794
12.4343  16.4816
12.4533  15.0798
12.4723  14.1838
12.4913  13.7872
12.5103  13.9811
12.5293  14.5512
12.5482  14.7434
12.5672  15.156
12.5862  15.083
12.6052  14.6709
12.6242  14.9382
12.6432  14.2906
12.6622  12.8586
12.6811  11.2528
12.7001  10.9866
12.7191  10.5119
12.7381  10.6803
12.7571  11.6008
12.7761  13.208
12.7951  15.0003
12.814  16.8493
12.833  19.4684
12.852  22.4912
12.871  25.7205
12.89  29.1067
12.909  31.7739
12.928  34.318
12.9469  34.5467
12.9659  33.5584
12.9849  30.178
13.0039  26.1415
13.0229  22.2673
13.0419  19.7199
13.0609  16.8936
13.0799  14.1028
13.0988  11.7577
13.1178  9.86899
13.1368  8.45532
13.1558  7.03748
13.1748  6.16595
13.1938  5.24711
13.2128  4.48001
13.2317  4.12906
13.2507  3.23064
13.2697  2.68474
13.2887  1.87482
13.3077  1.75627
13.3267  1.59764
13.3457  1.1936
13.3646  0.92484
13.3836  0.84791
13.4026  0.47894
13.4216  0.0802495
13.4406  -0.325062
13.4596  -0.322434
13.4786  -0.0552485
13.4975  0.318201
13.5165  0.544824
13.5355  0.77834
13.5545  0.595007
13.5735  0.729183
13.5925  1.20564
13.6115  1.95778
13.6305  2.11701
13.6494  2.19555
13.6684  2.68805
13.6874  3.3316
13.7064  3.72482
13.7254  3.7804
13.7444  4.10004
13.7634  4.05685
13.7823  3.93056
13.8013  3.85763
13.8203  3.67967
13.8393  3.65852
13.8583  3.5771
13.8773  3.72294
13.8963  2.90784
13.9152  2.40455
13.9342  1.99335
13.9532  1.8609
13.9722  1.34414
13.9912  0.754108
14.0102  0.551493
14.0292  0.57015
14.0481  0.542598
14.0671  0.502872
14.0861  0.39642
14.1051  0.351174
14.1241  0.20311
14.1431  0.112959
14.1621  -0.0383693
14.1811  -0.148284
14.2  -0.124333
14.219  0.162684
14.238  0.562143
14.257  0.491407
14.276  -0.025662
14.295  -0.0246439
14.314  0.342606
14.3329  0.377152
14.3519  0.611792
14.3709  0.70125
14.3899  0.566502
14.4089  0.501855
14.4279  0.55917
14.4469  0.85603
14.4658  0.814305
14.4848  0.50344
14.5038  0.138373
14.5228  0.363869
14.5418  0.667231
14.5608  0.463973
14.5798  0.460617
14.5987  0.455109
14.6177  0.752832
14.6367  0.713718
14.6557  0.845853
14.6747  0.742175
14.6937  0.460754
14.7127  0.588479
14.7317  0.373952
14.7506  0.427741
14.7696  0.0868424
14.7886  0.014757
14.8076  0.423282
14.8266  0.701661
14.8456  0.970828
14.8646  0.697803
14.8835  -0.0456379
14.9025  -0.98586
14.9215  -0.928724
14.9405  -0.388093
14.9595  0.216804
14.9785  -0.192772
14.9975  0.129727
15.0164  0.312202
15.0354  0.68728
15.0544  0.719809
15.0734  0.620821
15.0924  0.824908
15.1114  1.0267
15.1304  1.28451
15.1493  1.44138
15.1683  2.00958
15.1873  2.59906
15.2063  3.11244
15.2253  3.83685
15.2443  4.40009
15.2633  5.39504
15.2823  5.64166
15.3012  7.2787
15.3202  8.31226
15.3392  9.30241
15.3582  9.64882
15.3772  10.0867
15.3962  11.1396
15.4152  12.305
15.4341  13.135
15.4531  14.9149
15.4721  17.2299
15.4911  19.8144
15.5101  23.6983
15.5291  29.094
15.5481  36.8093
15.567  46.8767
15.586  61.0462
15.605  79.257
15.624  99.86
15.643  118.488
15.662  129.471
15.681  123.325
15.6999  105.075
15.7189  84.0422
15.7379  67.2249
15.7569  54.5315
15.7759  46.4871
15.7949  41.0337
15.8139  37.2665
15.8329  36.4798
15.8518  39.4363
15.8708  43.7475
15.8898  48.5912
15.9088  48.3653
15.9278  46.2681
15.9468  38.403
15.9658  32.7628
15.9847  24.9615
16.0037  21.5197
16.0227  19.4167
16.0417  17.9401
16.0607  16.6395
16.0797  14.9786
16.0987  13.3196
16.1176  11.9831
16.1366  10.9129
16.1556  10.1525
16.1746  9.70678
16.1936  9.04699
16.2126  9.00245
16.2316  9.01418
16.2505  8.47963
16.2695  7.63627
16.2885  7.05311
16.3075  6.2461
16.3265  5.55159
16.3455  4.99471
16.3645  4.31355
16.3834  3.73585
16.4024  3.18538
16.4214  2.87317
16.4404  2.60894
16.4594  2.63377
16.4784  2.56367
16.4974  1.78003
16.5164  1.40597
16.5353  1.55645
16.5543  1.48549
16.5733  0.68878
16.5923  0.167524
16.6113  0.242356
16.6303  0.562055
16.6493  0.614489
16.6682  0.264334
16.6872  0.0488782
16.7062  0.0708813
16.7252  0.0994309
16.7442  0.248503
16.7632  -0.0157921
16.7822  -0.0216896
16.8011  -0.249732
16.8201  -0.766663
16.8391  -0.685393
16.8581  -0.489948
16.8771  -0.17091
16.8961  -0.0476326
16.9151  -0.218458
16.934  0.0693661
16.953  0.179345
16.972  0.231472
16.991  0.0525569
17.01  0.474188
17.029  0.696681
17.048  0.787201
17.067  1.36535
17.0859  2.20143
17.1049  3.07908
17.1239  3.98958
17.1429  5.30196
17.1619  6.90514
17.1809  9.01573
17.1999  11.63
17.2188  14.5196
17.2378  18.0008
17.2568  21.4565
17.2758  25.8542
17.2948  29.6046
17.3138  34.1321
17.3328  37.6404
17.3517  41.3042
17.3707  44.424
17.3897  46.4799
17.4087  50.9618
17.4277  54.2579
17.4467  56.0545
17.4657  60.2292
17.4846  61.5918
17.5036  63.0604
17.5226  63.4628
17.5416  63.6384
17.5606  62.8285
17.5796  62.3482
17.5986  59.0801
17.6176  56.0792
17.6365  51.6067
17.6555  46.1762
17.6745  41.8413
17.6935  38.185
17.7125  33.8992
17.7315  30.1813
17.7505  26.2106
17.7694  24.0587
17.7884  20.9106
17.8074  19.0099
17.8264  16.1746
17.8454  13.5578
17.8644  10.8873
17.8834  8.28268
17.9023  6.75121
17.9213  5.06607
17.9403  3.69955
17.9593  2.53259
17.9783  1.99734
17.9973  1.42319
18.0163  1.04957
18.0352  0.789114
18.0542  0.383946
18.0732  0.103386
18.0922  -0.048626
18.1112  0.0336512
18.1302  0.371103
18.1492  0.843301
18.1682  1.28462
18.1871  1.8937
18.2061  2.9215
18.2251  4.60622
18.2441  7.34171
18.2631  10.9408
18.2821  15.5765
18.3011  20.1991
18.32  24.4662
18.339  28.5015
18.358  32.2428
18.377  36.6926
18.396  41.5928
18.415  48.5943
18.434  58.422
18.4529  71.7847
18.4719  79.5679
18.4909  79.2714
18.5099  67.6937
18.5289  54.406
18.5479  42.3656
18.5669  35.7592
18.5858  31.3569
18.6048  28.4114
18.6238  26.4443
18.6428  24.7898
18.6618  22.9226
18.6808  20.8403
18.6998  18.4015
18.7188  15.9326
18.7377  13.3314
18.7567  10.3505
18.7757  7.77688
18.7947  5.75392
18.8137  4.6727
18.8327  4.1908
18.8517  4.30017
18.8706  4.65449
18.8896  5.70695
18.9086  7.52185
18.9276  10.0492
18.9466  13.2864
18.9656  17.2871
18.9846  22.2431
19.0035  28.1555
19.0225  35.784
19.0415  45.7666
19.0605  55.715
19.0795  65.6846
19.0985  73.3852
19.1175  77.9958
19.1364  78.7533
19.1554  76.9365
19.1744  74.4273
19.1934  70.5258
19.2124  66.0877
19.2314  59.0397
19.2504  50.5244
19.2694  41.2082
19.2883  33.5555
19.3073  26.6571
19.3263  24.2917
19.3453  21.2219
19.3643  25.3971
19.3833  26.4538
19.4023  28.3636
19.4212  33.5496
19.4402  34.9419
19.4592  44.1127
19.4782  45.6263
19.4972  56.6915
19.5162  55.0855
19.5352  72.4662
19.5541  68.6861
19.5731  89.7641
19.5921  86.6459
19.6111  119.364
19.6301  109.409
19.6491  95.5234
19.6681  60.9753
19.687  46.8203
19.706  12.1039
19.725  10.4962
19.744  4.04478
19.763  3.74729
19.782  2.6843
19.801  2.72165
19.82  3.32528
19.8389  3.68355
19.8579  4.3097
19.8769  4.30767
19.8959  4.85205
19.9149  5.10695
19.9339  6.11391
19.9529  7.19551
19.9718  7.94369
19.9908  8.65706
20.0098  9.81944
20.0288  11.5543
20.0478  13.4109
20.0668  15.7295
20.0858  18.5472
20.1047  21.5495
20.1237  24.624
20.1427  27.9451
20.1617  30.0951
20.1807  31.9435
20.1997  33.8491
20.2187  36.1947
20.2376  38.4671
20.2566  42.82
20.2756  48.0791
20.2946  52.635
20.3136  56.5966
20.3326  60.5416
20.3516  62.7763
20.3706  64.2732
20.3895  65.5538
20.4085  66.6501
20.4275  67.4416
20.4465  66.6491
20.4655  64.5813
20.4845  64.0562
20.5035  63.5802
20.5224  62.5182
20.5414  60.0837
20.5604  55.91
20.5794  52.4509
20.5984  49.2922
20.6174  45.8784
20.6364  44.4106
20.6553  42.3948
20.6743  40.9603
20.6933  39.7953
20.7123  38.5518
20.7313  37.7109
20.7503  37.0759
20.7693  36.9981
20.7882  37.4909
20.8072  37.872
20.8262  37.7354
20.8452  37.8811
20.8642  37.0464
20.8832  37.9946
20.9022  38.2947
20.9212  37.4787
20.9401  34.3827
20.9591  29.5191
20.9781  23.0929
20.9971  21.0557
21.0161  19.0368
21.0351  19.1772
21.0541  20.4512
21.073  23.0187
21.092  27.674
21.111  34.6042
21.13  41.4139
21.149  45.1935
21.168  44.5545
21.187  41.5359
21.2059  39.7978
21.2249  39.5784
21.2439  39.1254
21.2629  37.8062
21.2819  35.0323
21.3009  31.895
21.3199  28.743
21.3388  26.7287
21.3578  26.9056
21.3768  27.3933
21.3958  27.5802
21.4148  23.9466
21.4338  17.8133
21.4528  10.7372
21.4717  5.20729
21.4907  1.84024
21.5097  0.238629
21.5287  -0.492593
21.5477  -0.791168
21.5667  -0.722253
21.5857  -0.783303
21.6047  -0.599699
21.6236  -0.438638
21.6426  -0.212588
21.6616  -0.23603
21.6806  -0.220313
21.6996  0.114339
21.7186  0.412128
21.7376  0.566674
21.7565  0.56697
21.7755  0.857738
21.7945  0.84387
21.8135  0.627485
21.8325  0.479919
21.8515  0.629188
21.8705  0.359001
21.8894  0.251619
21.9084  0.099058
21.9274  0.136777
21.9464  0.306109
21.9654  0.260805
21.9844  0.0641643
22.0034  0.0143894
22.0223  0.00933297
22.0413  -0.13769
22.0603  -0.278561
22.0793  -0.220103
22.0983  -0.0845828
22.1173  0.0546597
22.1363  -0.0990585
22.1553  -0.472462
22.1742  -0.524938
22.1932  -0.265246
22.2122  0.135828
22.2312  0.111768
22.2502  -0.0363221
22.2692  0.0457066
22.2882  0.419311
22.3071  0.457647
22.3261  0.378183
22.3451  0.329867
22.3641  0.296127
22.3831  0.321579
22.4021  0.188489
22.4211  0.279888
22.44  0.288049
22.459  0.190984
22.478  0.043828
22.497  -0.036283
22.516  0.0398822
22.535  0.0482675
22.554  0.156937
22.5729  0.298598
22.5919  0.329258
22.6109  0.399442
22.6299  0.214613
22.6489  0.236151
22.6679  0.0863996
22.6869  0.0995011
22.7059  -0.109564
22.7248  -0.1025
22.7438  0.142303
22.7628  0.163241
22.7818  0.0897759
22.8008  -0.024709
22.8198  0.274658
22.8388  0.229993
22.8577  -0.014251
22.8767  -0.20947
22.8957  0.188411
22.9147  0.22717
22.9337  0.14177
22.9527  0.183141
22.9717  0.236465
22.9906  0.341933
23.0096  0.421155
23.0286  0.324379
23.0476  0.143485
23.0666  0.00252944
23.0856  0.0628608
23.1046  0.305748
23.1235  0.426396
23.1425  0.214061
23.1615  -0.0707713
23.1805  0.121064
23.1995  0.365065
23.2185  0.248345
23.2375  0.0804763
23.2565  -0.0099483
23.2754  0.103943
23.2944  0.00379069
23.3134  -0.145691
23.3324  0.0321712
23.3514  0.252773
23.3704  0.464953
23.3894  0.276589
23.4083  0.309554
23.4273  0.110199
23.4463  0.310702
23.4653  0.302538
23.4843  0.417897
23.5033  0.19244
23.5223  0.0971443
23.5412  -0.0424689
23.5602  0.0937332
23.5792  0.413406
23.5982  0.468419
23.6172  0.287664
23.6362  0.0367272
23.6552  -0.0410965
23.6741  -0.0335662
23.6931  0.124718
23.7121  0.361943
23.7311  0.393718
23.7501  0.193161
23.7691  0.0770015
23.7881  0.148275
23.8071  0.424151
23.826  0.411965
23.845  0.200659
23.864  0.0340075
23.883  0.0496892
23.902  0.125437
23.921  0.140083
23.94  0.265729
23.9589  0.383521
23.9779  0.46208
23.9969  0.293737
24.0159  0.0601541
24.0349  -0.228329
24.0539  -0.150084
24.0729  0.147616
24.0918  0.290793
24.1108  0.131026
24.1298  -0.166316
24.1488  -0.197921
24.1678  -0.0210991
24.1868  0.0154827
24.2058  0.0510752
24.2247  0.087109
24.2437  -0.0600464