File: data/processed/Run1_XRD/4_ReMoB2_15pGPa_295psi_P1_C4_D1w_041.dat
2.82731  0.655526
2.84629  0.621256
2.86528  0.619006
2.88427  0.746884
2.90325  0.282692
2.92224  -0.0248261
2.94122  0.164927
2.96021  0.872806
2.9792  1.35515
2.99818  1.46619
3.01717  0.813631
3.03616  0.38421
3.05514  0.365191
3.07413  0.201894
3.09311  0.949885
3.1121  1.22127
3.13109  1.69776
3.15007  1.19885
3.16906  1.00449
3.18805  0.963378
3.20703  1.54642
3.22602  1.72963
3.245  2.10335
3.26399  2.70665
3.28298  3.24159
3.30196  3.42289
3.32095  3.95813
3.33993  4.77801
3.35892  6.86678
3.37791  10.5589
3.39689  15.2767
3.41588  21.1664
3.43487  26.9596
3.45385  28.3519
3.47284  26.0954
3.49182  21.6119
3.51081  15.6964
3.5298  10.1357
3.54878  6.72246
3.56777  4.91087
3.58676  4.09924
3.60574  3.59702
3.62473  2.7086
3.64371  2.52006
3.6627  2.09885
3.68169  1.99881
3.70067  1.77905
3.71966  1.33765
3.73864  0.801386
3.75763  0.548504
3.77662  0.216835
3.7956  0.579511
3.81459  0.635215
3.83358  0.45132
3.85256  0.0605164
3.87155  0.361312
3.89053  0.372009
3.90952  0.302812
3.92851  0.494454
3.94749  0.443598
3.96648  0.958526
3.98547  0.709268
4.00445  0.429713
4.02344  0.268311
4.04242  0.41466
4.06141  0.538832
4.0804  0.832044
4.09938  1.04351
4.11837  1.08216
4.13735  1.04533
4.15634  1.05242
4.17533  0.935454
4.19431  1.068
4.2133  0.979638
4.23229  0.716726
4.25127  0.484252
4.27026  0.465821
4.28924  0.079866
4.30823  -0.0217082
4.32722  0.0120936
4.3462  0.129679
4.36519  0.17543
4.38418  -0.021704
4.40316  0.224542
4.42215  0.0763159
4.44113  0.122822
4.46012  -0.175353
4.47911  -0.0894678
4.49809  0.405519
4.51708  0.525194
4.53606  0.59517
4.55505  0.161166
4.57404  0.754997
4.59302  0.781797
4.61201  1.18084
4.631  0.824983
4.64998  0.69596
4.66897  0.893578
4.68795  0.687115
4.70694  0.299433
4.72593  0.807334
4.74491  0.873869
4.7639  0.992447
4.78289  0.992013
4.80187  0.57035
4.82086  0.737036
4.83984  0.535002
4.85883  0.752617
4.87782  1.0759
4.8968  1.33628
4.91579  1.40343
4.93478  1.603
4.95376  1.01466
4.97275  0.537272
4.99173  -0.0447804
5.01072  -0.19753
5.02971  0.476425
5.04869  0.727166
5.06768  0.77189
5.08666  0.791269
5.10565  1.01732
5.12464  1.18533
5.14362  1.10001
5.16261  0.588118
5.1816  0.227482
5.20058  0.499935
5.21957  0.833399
5.23855  1.42505
5.25754  1.6099
5.27653  1.29155
5.29551  1.19162
5.3145  1.19538
5.33349  1.61286
5.35247  1.52623
5.37146  1.22489
5.39044  1.10051
5.40943  0.629292
5.42842  0.0894192
5.4474  -0.162766
5.46639  -0.211801
5.48537  0.19614
5.50436  0.350179
5.52335  0.804036
5.54233  1.27216
5.56132  1.79295
5.58031  1.24962
5.59929  0.693376
5.61828  0.929233
5.63726  0.928225
5.65625  1.07687
5.67524  0.4665
5.69422  0.742267
5.71321  1.32773
5.7322  1.6033
5.75118  1.38657
5.77017  1.03185
5.78915  0.576937
5.80814  0.523304
5.82713  0.499209
5.84611  0.772952
5.8651  1.16294
5.88408  1.52024
5.90307  1.47675
5.92206  1.07974
5.94104  0.771844
5.96003  1.19289
5.97902  1.48895
5.998  1.43659
6.01699  1.04454
6.03597  0.321776
6.05496  0.225498
6.07395  0.0285955
6.09293  -0.134346
6.11192  -0.267393
6.13091  -0.0585804
6.14989  0.471084
6.16888  1.54132
6.18786  1.19003
6.20685  0.722622
6.22584  0.637803
6.24482  0.444006
6.26381  0.854447
6.28279  1.28474
6.30178  1.08654
6.32077  0.72889
6.33975  0.452046
6.35874  0.436045
6.37773  0.0443669
6.39671  0.364504
6.4157  0.887733
6.43468  1.63005
6.45367  3.16362
6.47266  3.78224
6.49164  5.74958
6.51063  7.23847
6.52962  8.34517
6.5486  12.1647
6.56759  12.9736
6.58657  13.0489
6.60556  11.1644
6.62455  10.0178
6.64353  6.76705
6.66252  6.65114
6.6815  6.53796
6.70049  7.25947
6.71948  9.75779
6.73846  13.3125
6.75745  19.7586
6.77644  29.2041
6.79542  41.3799
6.81441  58.9077
6.83339  77.2845
6.85238  95.4903
6.87137  109.741
6.89035  113.938
6.90934  114.475
6.92833  108.555
6.94731  96.7164
6.9663  83.2742
6.98528  70.1442
7.00427  54.4435
7.02326  44.0815
7.04224  33.7564
7.06123  25.6628
7.08021  18.8056
7.0992  13.7555
7.11819  10.2127
7.13717  7.87426
7.15616  5.8518
7.17515  4.27672
7.19413  2.77947
7.21312  1.75525
7.2321  1.10982
7.25109  0.872735
7.27008  0.492483
7.28906  0.377787
7.30805  0.250991
7.32704  0.462023
7.34602  0.70257
7.36501  0.368001
7.38399  0.289599
7.40298  0.297069
7.42197  1.00951
7.44095  1.54278
7.45994  1.4194
7.47892  1.57158
7.49791  1.53368
7.5169  1.82597
7.53588  2.11678
7.55487  2.14635
7.57386  2.39137
7.59284  2.08662
7.61183  1.76135
7.63081  1.18329
7.6498  0.731952
7.66879  0.67324
7.68777  0.813589
7.70676  0.456322
7.72575  0.567579
7.74473  0.776322
7.76372  1.10581
7.7827  0.865079
7.80169  0.0353499
7.82068  -0.242232
7.83966  0.159117
7.85865  0.6052
7.87764  0.649175
7.89662  0.318825
7.91561  0.551297
7.93459  0.74092
7.95358  0.714593
7.97257  0.624126
7.99155  0.806671
8.01054  0.824224
8.02952  0.652998
8.04851  0.454207
8.0675  0.464609
8.08648  0.491258
8.10547  0.512959
8.12446  0.413632
8.14344  0.579606
8.16243  0.696502
8.18141  0.715061
8.2004  0.238022
8.21939  0.0139179
8.23837  -0.0950754
8.25736  0.0857883
8.27635  0.480993
8.29533  0.475467
8.31432  0.480463
8.3333  0.510136
8.35229  0.351197
8.37128  -0.0737595
8.39026  0.0398102
8.40925  0.13568
8.42823  0.802639
8.44722  1.20757
8.46621  1.01621
8.48519  0.861564
8.50418  0.816036
8.52317  1.0153
8.54215  0.99019
8.56114  0.36159
8.58012  -0.0689104
8.59911  -0.114688
8.6181  -0.0783874
8.63708  -0.144327
8.65607  -0.365343
8.67506  -0.0239351
8.69404  0.394104
8.71303  0.576354
8.73201  0.612708
8.751  0.566133
8.76999  0.632805
8.78897  0.563139
8.80796  0.0317575
8.82694  -0.135021
8.84593  -0.27343
8.86492  0.159589
8.8839  0.216585
8.90289  0.190877
8.92188  0.387163
8.94086  0.770828
8.95985  1.94182
8.97883  2.7279
8.99782  4.0984
9.01681  6.27837
9.03579  9.4802
9.05478  14.1924
9.07377  21.3856
9.09275  32.8809
9.11174  51.0624
9.13072  77.3969
9.14971  114.436
9.1687  162.823
9.18768  227.122
9.20667  306.396
9.22565  404.063
9.24464  516.373
9.26363  641.804
9.28261  784.75
9.3016  934.821
9.32059  1091.92
9.33957  1190.32
9.35856  1218.54
9.37754  1151.65
9.39653  1041.81
9.41552  903.643
9.4345  775.922
9.45349  660.322
9.47248  564.728
9.49146  487.545
9.51045  422.335
9.52943  363.47
9.54842  312.91
9.56741  265.121
9.58639  220.548
9.60538  180.705
9.62436  144.427
9.64335  114.785
9.66234  90.2772
9.68132  70.6397
9.70031  54.4538
9.7193  41.7649
9.73828  31.4572
9.75727  23.2251
9.77625  16.5126
9.79524  11.5184
9.81423  7.97551
9.83321  5.19449
9.8522  3.24748
9.87119  1.35626
9.89017  -0.0884105
9.90916  -0.573727
9.92814  -0.361384
9.94713  0.47995
9.96612  1.98124
9.9851  3.29889
10.0041  4.20481
10.0231  4.77755
10.0421  5.09826
10.061  4.8277
10.08  3.72053
10.099  2.32614
10.118  1.05775
10.137  0.850138
10.156  1.45257
10.175  2.7721
10.194  5.53402
10.2129  11.2366
10.2319  15.3673
10.2509  22.5574
10.2699  29.1868
10.2889  36.2559
10.3079  44.6449
10.3269  50.639
10.3458  53.0993
10.3648  53.159
10.3838  51.0803
10.4028  44.9357
10.4218  40.1722
10.4408  35.663
10.4598  30.7525
10.4787  27.8668
10.4977  25.0949
10.5167  23.4593
10.5357  22.5632
10.5547  22.376
10.5737  23.3973
10.5927  25.0546
10.6116  27.9554
10.6306  31.4985
10.6496  35.4097
10.6686  41.9165
10.6876  48.5985
10.7066  58.572
10.7256  70.1757
10.7446  83.9606
10.7635  102.579
10.7825  120.281
10.8015  140.612
10.8205  157.616
10.8395  171.961
10.8585  185.955
10.8775  191.159
10.8964  200.171
10.9154  194.165
10.9344  186.534
10.9534  161.215
10.9724  139.347
10.9914  105.835
11.0104  86.7485
11.0293  66.738
11.0483  52.8607
11.0673  42.4032
11.0863  33.1927
11.1053  26.6061
11.1243  20.6896
11.1433  15.8808
11.1622  12.6198
11.1812  9.72291
11.2002  7.82977
11.2192  6.457
11.2382  6.04107
11.2572  6.01088
11.2762  5.48211
11.2951  5.21161
11.3141  5.63756
11.3331  6.85939
11.3521  7.79581
11.3711  8.47891
11.3901  8.79345
11.4091  9.13418
11.4281  8.70641
11.447  7.50998
11.466  5.54101
11.485  4.05831
11.504  2.75583
11.523  1.62659
11.542  0.885413
11.561  0.0707167
11.5799  0.000267633
11.5989  -0.246927
11.6179  -0.35792
11.6369  -0.888044
11.6559  -1.01475
11.6749  -1.30919
11.6939  -1.60845
11.7128  -1.56173
11.7318  -1.47223
11.7508  -1.3959
11.7698  -1.32691
11.7888  -0.960131
11.8078  -0.554408
11.8268  -0.0832499
11.8457  0.450211
11.8647  0.725155
11.8837  0.943743
11.9027  1.21266
11.9217  1.57773
11.9407  1.52726
11.9597  1.56123
11.9787  1.87944
11.9976  2.51097
12.0166  3.36556
12.0356  4.9857
12.0546  6.71379
12.0736  9.00684
12.0926  11.5076
12.1116  14.471
12.1305  18.421
12.1495  22.9883
12.1685  28.6642
12.1875  34.4694
12.2065  40.8813
12.2255  47.0688
12.2445  52.9944
12.2634  58.4949
12.2824  63.4778
12.3014  68.1876
12.3204  72.0503
12.3394  73.3123
12.3584  71.564
12.3774  67.8733
12.3963  64.2891
12.4153  60.3456
12.4343  55.1763
12.4533  48.7574
12.4723  42.3254
12.4913  36.5236
12.5103  31.9901
12.5293  28.4473
12.5482  26.0744
12.5672  24.6695
12.5862  24.1954
12.6052  24.2002
12.6242  25.3966
12.6432  26.2307
12.6622  28.2197
12.6811  30.9712
12.7001  33.0289
12.7191  36.1062
12.7381  37.7448
12.7571  40.2516
12.7761  43.0209
12.7951  45.8895
12.814  49.82
12.833  52.7166
12.852  56.4171
12.871  62.1389
12.89  67.3829
12.909  75.5821
12.928  83.058
12.9469  92.7511
12.9659  104.419
12.9849  116.268
13.0039  128.66
13.0229  141.094
13.0419  151.438
13.0609  162.245
13.0799  166.164
13.0988  164.192
13.1178  153.074
13.1368  138.625
13.1558  117.902
13.1748  100.98
13.1938  83.6873
13.2128  70.4889
13.2317  59.4911
13.2507  48.8054
13.2697  40.557
13.2887  32.584
13.3077  25.9301
13.3267  20.8347
13.3457  16.2548
13.3646  12.9527
13.3836  9.61013
13.4026  6.31605
13.4216  4.33337
13.4406  2.80535
13.4596  2.2225
13.4786  1.43301
13.4975  0.777834
13.5165  0.66674
13.5355  0.327959
13.5545  0.525779
13.5735  0.288579
13.5925  0.487453
13.6115  1.03902
13.6305  2.93063
13.6494  4.85006
13.6684  7.27403
13.6874  9.12621
13.7064  11.4079
13.7254  13.6594
13.7444  15.6637
13.7634  17.2795
13.7823  17.9545
13.8013  18.4695
13.8203  18.4736
13.8393  18.3229
13.8583  17.7218
13.8773  16.5869
13.8963  14.474
13.9152  12.449
13.9342  10.756
13.9532  9.11699
13.9722  7.5555
13.9912  6.11257
14.0102  4.99732
14.0292  4.17962
14.0481  3.60323
14.0671  3.13028
14.0861  2.20018
14.1051  1.52936
14.1241  1.25566
14.1431  1.08761
14.1621  0.757963
14.1811  0.106377
14.2  -0.266709
14.219  -0.569063
14.238  -0.67819
14.257  -0.797765
14.276  -0.735124
14.295  -0.548377
14.314  -0.291536
14.3329  -0.352347
14.3519  0.0722183
14.3709  0.0421105
14.3899  0.127131
14.4089  0.141477
14.4279  0.382312
14.4469  0.479145
14.4658  0.400305
14.4848  0.335
14.5038  0.204704
14.5228  0.204017
14.5418  0.256218
14.5608  0.310474
14.5798  0.138273
14.5987  0.164018
14.6177  0.186295
14.6367  0.416097
14.6557  0.335417
14.6747  0.224257
14.6937  0.0509774
14.7127  0.176808
14.7317  0.577115
14.7506  0.220735
14.7696  0.0886772
14.7886  -0.106071
14.8076  -0.196195
14.8266  -0.0307449
14.8456  0.182398
14.8646  0.278954
14.8835  0.202164
14.9025  -0.489462
14.9215  -0.442778
14.9405  -0.167305
14.9595  0.35295
14.9785  0.586892
14.9975  0.693307
15.0164  0.985766
15.0354  1.24836
15.0544  1.01437
15.0734  1.27472
15.0924  1.43606
15.1114  1.56757
15.1304  1.00853
15.1493  0.866068
15.1683  1.01979
15.1873  1.46215
15.2063  1.85649
15.2253  1.97969
15.2443  1.91168
15.2633  1.49789
15.2823  1.24886
15.3012  1.7353
15.3202  2.28764
15.3392  3.17036
15.3582  3.84299
15.3772  4.6993
15.3962  5.75249
15.4152  7.0052
15.4341  8.25329
15.4531  9.76878
15.4721  11.3172
15.4911  13.6613
15.5101  16.5312
15.5291  19.6731
15.5481  24.0184
15.567  29.1958
15.586  34.5651
15.605  40.5323
15.624  47.1277
15.643  54.4902
15.662  61.7093
15.681  67.2636
15.6999  71.3348
15.7189  72.9708
15.7379  71.8542
15.7569  68.3127
15.7759  64.3833
15.7949  59.9151
15.8139  55.768
15.8329  51.1492
15.8518  46.3198
15.8708  41.9001
15.8898  37.767
15.9088  34.7641
15.9278  32.384
15.9468  30.6602
15.9658  28.7345
15.9847  27.3897
16.0037  26.158
16.0227  26.2688
16.0417  26.0602
16.0607  26.1774
16.0797  25.8974
16.0987  25.9756
16.1176  25.0416
16.1366  24.016
16.1556  22.3853
16.1746  21.4005
16.1936  19.8766
16.2126  18.6866
16.2316  16.9015
16.2505  14.9525
16.2695  12.8767
16.2885  11.2132
16.3075  9.62577
16.3265  8.63844
16.3455  7.89609
16.3645  7.09329
16.3834  5.98867
16.4024  5.25718
16.4214  4.54984
16.4404  4.08016
16.4594  3.64017
16.4784  3.4462
16.4974  2.78153
16.5164  2.2189
16.5353  1.48187
16.5543  1.70481
16.5733  1.73658
16.5923  2.5481
16.6113  3.05149
16.6303  2.79328
16.6493  1.80353
16.6682  1.34546
16.6872  0.578581
16.7062  0.181266
16.7252  -0.136868
16.7442  -0.484328
16.7632  -0.162573
16.7822  -0.169936
16.8011  -0.283604
16.8201  -0.932023
16.8391  -1.1239
16.8581  -1.24441
16.8771  -0.970231
16.8961  -1.0582
16.9151  -1.07915
16.934  -0.925333
16.953  -0.850214
16.972  -0.793656
16.991  -0.795794
17.01  -0.599979
17.029  -0.502518
17.048  -0.392888
17.067  -0.0826023
17.0859  0.349564
17.1049  0.933698
17.1239  1.93155
17.1429  3.10874
17.1619  4.57938
17.1809  6.63387
17.1999  9.35214
17.2188  12.5221
17.2378  15.8655
17.2568  19.8705
17.2758  24.8317
17.2948  29.9672
17.3138  36.2706
17.3328  43.3781
17.3517  50.6926
17.3707  58.3177
17.3897  65.648
17.4087  74.0668
17.4277  81.9276
17.4467  90.5437
17.4657  99.0569
17.4846  107.337
17.5036  116.681
17.5226  124.287
17.5416  133.849
17.5606  140.578
17.5796  148.06
17.5986  154.934
17.6176  163.35
17.6365  169.355
17.6555  171.294
17.6745  166.562
17.6935  157.228
17.7125  145.891
17.7315  131.641
17.7505  118.929
17.7694  107.341
17.7884  95.1768
17.8074  84.6824
17.8264  73.699
17.8454  64.7216
17.8644  56.2605
17.8834  48.9067
17.9023  41.6901
17.9213  35.3314
17.9403  29.9348
17.9593  25.1824
17.9783  21.0854
17.9973  17.5932
18.0163  15.1395
18.0352  13.1784
18.0542  11.2311
18.0732  9.43702
18.0922  7.95935
18.1112  6.67711
18.1302  6.07509
18.1492  5.94778
18.1682  6.28656
18.1871  6.80969
18.2061  7.21915
18.2251  7.99331
18.2441  9.71059
18.2631  11.672
18.2821  14.1164
18.3011  16.8199
18.32  20.169
18.339  24.0792
18.358  28.7722
18.377  34.5025
18.396  40.7281
18.415  47.3588
18.434  54.5667
18.4529  61.8541
18.4719  69.8
18.4909  78.6047
18.5099  87.914
18.5289  96.0505
18.5479  103.677
18.5669  109.368
18.5858  112.32
18.6048  112.24
18.6238  109.711
18.6428  105.614
18.6618  100.054
18.6808  94.0001
18.6998  87.2442
18.7188  80.2993
18.7377  72.9457
18.7567  66.5863
18.7757  60.2766
18.7947  54.4951
18.8137  48.2794
18.8327  42.4644
18.8517  36.6027
18.8706  31.1043
18.8896  26.0547
18.9086  21.9578
18.9276  18.7928
18.9466  16.15
18.9656  14.4966
18.9846  13.2393
19.0035  12.1977
19.0225  11.6351
19.0415  11.6815
19.0605  11.9737
19.0795  12.9072
19.0985  13.6882
19.1175  14.4742
19.1364  14.6532
19.1554  15.4842
19.1744  16.477
19.1934  17.6941
19.2124  18.5907
19.2314  19.2233
19.2504  20.6236
19.2694  22.0961
19.2883  23.1891
19.3073  23.2271
19.3263  23.5746
19.3453  23.1287
19.3643  23.088
19.3833  21.3878
19.4023  20.2876
19.4212  17.8323
19.4402  17.4298
19.4592  15.5977
19.4782  14.9165
19.4972  14.045
19.5162  13.0467
19.5352  11.8449
19.5541  10.7512
19.5731  9.32426
19.5921  8.00014
19.6111  7.05799
19.6301  6.06589
19.6491  5.13024
19.6681  3.6284
19.687  2.91976
19.706  1.86767
19.725  1.45321
19.744  0.989768
19.763  0.780185
19.782  0.416305
19.801  0.289683
19.82  0.00517822
19.8389  0.204205
19.8579  0.560449
19.8769  0.78965
19.8959  0.848524
19.9149  1.22567
19.9339  1.90485
19.9529  2.31153
19.9718  3.18986
19.9908  3.92521
20.0098  4.52022
20.0288  5.07467
20.0478  5.60287
20.0668  6.22934
20.0858  6.9003
20.1047  7.54468
20.1237  8.1756
20.1427  8.70026
20.1617  9.34822
20.1807  10.1902
20.1997  10.6725
20.2187  11.203
20.2376  11.7529
20.2566  12.1029
20.2756  12.4299
20.2946  12.841
20.3136  13.8661
20.3326  14.4301
20.3516  15.0983
20.3706  15.3993
20.3895  16.4065
20.4085  17.2433
20.4275  17.8574
20.4465  18.8784
20.4655  19.7564
20.4845  20.9258
20.5035  22.0187
20.5224  22.8909
20.5414  24.0773
20.5604  25.4877
20.5794  27.0538
20.5984  28.4745
20.6174  29.7961
20.6364  30.6377
20.6553  30.781
20.6743  30.0501
20.6933  29.6437
20.7123  29.0436
20.7313  28.4744
20.7503  27.7905
20.7693  27.2481
20.7882  26.4733
20.8072  25.6374
20.8262  24.5963
20.8452  23.3582
20.8642  22.6171
20.8832  21.6388
20.9022  20.5154
20.9212  19.3991
20.9401  18.2265
20.9591  17.4438
20.9781  16.505
20.9971  15.8326
21.0161  15.1258
21.0351  15.1264
21.0541  15.1462
21.073  15.7217
21.092  16.4044
21.111  17.7815
21.13  19.0756
21.149  20.8242
21.168  22.1793
21.187  23.6035
21.2059  24.6276
21.2249  25.7115
21.2439  26.3923
21.2629  26.5143
21.2819  26.1279
21.3009  24.6513
21.3199  22.6555
21.3388  20.0244
21.3578  17.6003
21.3768  14.8671
21.3958  12.6393
21.4148  10.6306
21.4338  8.85188
21.4528  7.23598
21.4717  5.90498
21.4907  4.76222
21.5097  3.66
21.5287  2.75439
21.5477  1.95937
21.5667  1.18013
21.5857  0.607915
21.6047  0.352328
21.6236  0.193757
21.6426  0.0690713
21.6616  0.0029038
21.6806  0.0943596
21.6996  0.0191048
21.7186  0.106322
21.7376  0.165064
21.7565  0.249982
21.7755  0.440913
21.7945  0.480968
21.8135  0.138359
21.8325  -0.142978
21.8515  -0.202135
21.8705  -0.236711
21.8894  -0.438192
21.9084  -0.504113
21.9274  -0.387625
21.9464  -0.126827
21.9654  -0.1964
21.9844  -0.322884
22.0034  -0.277217
22.0223  -0.0707327
22.0413  0.0820614
22.0603  0.0958895
22.0793  0.192746
22.0983  -0.14219
22.1173  -0.00237698
22.1363  0.097947
22.1553  0.126086
22.1742  -0.00174838
22.1932  0.155592
22.2122  0.350164
22.2312  0.349587
22.2502  0.382872
22.2692  0.230919
22.2882  0.130122
22.3071  0.174317
22.3261  0.211711
22.3451  0.230707
22.3641  0.218435
22.3831  0.226386
22.4021  0.0885464
22.4211  0.0556067
22.44  0.0972985
22.459  0.0721842
22.478  0.121813
22.497  -0.0610468
22.516  -0.0793052
22.535  -0.193574
22.554  -0.109906
22.5729  -0.134321
22.5919  -0.207003
22.6109  -0.144627
22.6299  -0.274126
22.6489  -0.218468
22.6679  0.00394247
22.6869  0.205628
22.7059  0.187807
22.7248  0.0155377
22.7438  -0.10273
22.7628  -0.0382339
22.7818  0.138507
22.8008  0.328169
22.8198  0.213141
22.8388  0.0728461
22.8577  0.182539
22.8767  0.315964
22.8957  0.308487
22.9147  0.300779
22.9337  0.361083
22.9527  0.240839
22.9717  0.115658
22.9906  0.0404503
23.0096  0.13054
23.0286  0.187464
23.0476  0.173321
23.0666  0.104994
23.0856  0.102576
23.1046  0.256742
23.1235  0.111747
23.1425  -0.00923803
23.1615  -0.214827
23.1805  -0.000776045
23.1995  0.25794
23.2185  0.430757
23.2375  0.393148
23.2565  0.170362
23.2754  -0.0274139
23.2944  -0.0961409
23.3134  -0.214545
23.3324  -0.110886
23.3514  0.055144
23.3704  0.271239
23.3894  0.252929
23.4083  0.204117
23.4273  0.225435
23.4463  0.297059
23.4653  0.393028
23.4843  0.356018
23.5033  0.297626
23.5223  0.19447
23.5412  0.100893
23.5602  0.0127261
23.5792  0.069859
23.5982  0.144212
23.6172  0.227649
23.6362  0.205974
23.6552  0.223269
23.6741  0.20259
23.6931  0.259015
23.7121  0.138842
23.7311  0.110617
23.7501  0.190264
23.7691  0.299293
23.7881  0.484554
23.8071  0.372365
23.826  0.176873
23.845  -0.0624307
23.864  0.32947
23.883  0.59168
23.902  0.672898
23.921  0.470011
23.94  0.505132
23.9589  0.472528
23.9779  0.40002
23.9969  0.368728
24.0159  0.20544
24.0349  -0.125199
24.0539  -0.380206
24.0729  -0.257696
24.0918  -0.0123268
24.1108  0.159391
24.1298  0.285725
24.1488  0.17506
24.1678  0.0911361
24.1868  -0.0912654
24.2058  -0.149137
24.2247  -0.148855
24.2437  0.135771