File: data/processed/Run1_XRD/5_ReMoB2_20pGPa_325psi_P1_C4_D1w_047.dat
2.82731  0.408169
2.84629  0.543929
2.86528  0.686456
2.88427  0.688266
2.90325  0.742615
2.92224  0.801374
2.94122  0.943584
2.96021  1.012
2.9792  1.05649
2.99818  0.69978
3.01717  -0.140135
3.03616  0.0761672
3.05514  0.174796
3.07413  0.734084
3.09311  1.03297
3.1121  1.14518
3.13109  1.14675
3.15007  0.911433
3.16906  1.25351
3.18805  1.11954
3.20703  2.01408
3.22602  2.20296
3.245  2.34081
3.26399  2.4483
3.28298  2.58706
3.30196  2.80114
3.32095  3.5764
3.33993  4.05695
3.35892  4.9443
3.37791  6.70442
3.39689  10.7386
3.41588  16.9348
3.43487  22.0342
3.45385  23.2663
3.47284  20.4864
3.49182  15.7941
3.51081  10.629
3.5298  6.66581
3.54878  3.83081
3.56777  2.31833
3.58676  2.03514
3.60574  2.22763
3.62473  2.77885
3.64371  2.51811
3.6627  2.29197
3.68169  1.63008
3.70067  1.09285
3.71966  0.656222
3.73864  0.010521
3.75763  0.0533149
3.77662  -0.0749024
3.7956  0.642043
3.81459  0.758924
3.83358  1.26384
3.85256  1.33146
3.87155  1.34943
3.89053  1.0859
3.90952  1.07143
3.92851  1.31534
3.94749  1.99896
3.96648  1.68543
3.98547  1.1915
4.00445  0.599724
4.02344  0.807335
4.04242  0.615691
4.06141  0.786745
4.0804  0.58529
4.09938  1.15831
4.11837  0.81151
4.13735  0.693074
4.15634  0.378834
4.17533  0.59692
4.19431  0.634653
4.2133  0.853742
4.23229  1.04204
4.25127  0.981274
4.27026  0.728075
4.28924  0.60908
4.30823  0.178719
4.32722  0.0162259
4.3462  -0.0873238
4.36519  0.302203
4.38418  0.4451
4.40316  0.299829
4.42215  -0.0160275
4.44113  0.595781
4.46012  0.955097
4.47911  0.887654
4.49809  0.311624
4.51708  0.509169
4.53606  0.555207
4.55505  0.516729
4.57404  -0.00624682
4.59302  -0.182313
4.61201  -0.00948926
4.631  0.0754175
4.64998  0.414815
4.66897  0.475269
4.68795  0.437297
4.70694  0.580552
4.72593  0.773166
4.74491  0.51089
4.7639  0.684415
4.78289  0.849964
4.80187  1.06295
4.82086  1.16615
4.83984  1.46142
4.85883  0.891569
4.87782  0.658599
4.8968  0.510598
4.91579  0.475352
4.93478  0.441248
4.95376  0.0443907
4.97275  0.268178
4.99173  0.78085
5.01072  1.5615
5.02971  1.535
5.04869  0.92129
5.06768  0.558402
5.08666  0.878874
5.10565  1.21872
5.12464  1.64923
5.14362  1.26648
5.16261  1.21276
5.1816  1.04608
5.20058  0.977885
5.21957  0.972335
5.23855  0.904959
5.25754  0.798216
5.27653  0.848021
5.29551  1.11384
5.3145  0.591247
5.33349  0.584858
5.35247  0.480607
5.37146  0.696355
5.39044  1.19643
5.40943  1.54307
5.42842  1.22707
5.4474  0.603701
5.46639  -0.18776
5.48537  -0.168982
5.50436  -0.179925
5.52335  0.372243
5.54233  0.795616
5.56132  1.40015
5.58031  1.99218
5.59929  1.63708
5.61828  1.77904
5.63726  1.2122
5.65625  1.42327
5.67524  1.21296
5.69422  1.55737
5.71321  1.25862
5.7322  1.30806
5.75118  1.23275
5.77017  1.18885
5.78915  1.00847
5.80814  1.4661
5.82713  1.71188
5.84611  1.73576
5.8651  1.23323
5.88408  1.36742
5.90307  1.11603
5.92206  0.902053
5.94104  0.750084
5.96003  0.306965
5.97902  0.627578
5.998  0.296094
6.01699  0.373748
6.03597  0.17582
6.05496  0.0915046
6.07395  0.0640883
6.09293  -0.16784
6.11192  -0.11099
6.13091  0.238592
6.14989  0.378545
6.16888  0.521657
6.18786  0.29762
6.20685  0.796974
6.22584  0.850056
6.24482  0.862664
6.26381  0.463227
6.28279  0.629977
6.30178  0.80307
6.32077  0.73337
6.33975  0.297964
6.35874  0.136601
6.37773  0.2891
6.39671  0.73538
6.4157  1.19863
6.43468  1.11683
6.45367  1.58869
6.47266  2.41236
6.49164  4.65392
6.51063  8.32885
6.52962  13.5805
6.5486  17.8789
6.56759  19.8258
6.58657  18.3233
6.60556  14.2642
6.62455  10.0069
6.64353  6.88145
6.66252  5.06619
6.6815  4.71278
6.70049  4.9331
6.71948  5.55572
6.73846  6.70053
6.75745  8.87135
6.77644  13.7366
6.79542  22.3096
6.81441  36.736
6.83339  56.9356
6.85238  80.954
6.87137  105.929
6.89035  122.028
6.90934  124.365
6.92833  113.572
6.94731  94.4986
6.9663  73.3499
6.98528  54.0905
7.00427  37.6534
7.02326  26.8786
7.04224  18.6134
7.06123  13.0726
7.08021  9.17249
7.0992  7.01186
7.11819  5.36919
7.13717  4.13061
7.15616  2.6239
7.17515  2.05603
7.19413  1.54296
7.21312  1.24249
7.2321  0.715083
7.25109  0.320518
7.27008  0.118758
7.28906  0.63117
7.30805  0.724166
7.32704  0.999446
7.34602  0.937462
7.36501  0.97799
7.38399  0.372939
7.40298  0.128799
7.42197  0.122075
7.44095  0.4615
7.45994  0.530121
7.47892  0.101935
7.49791  -0.0317618
7.5169  0.00799344
7.53588  0.293869
7.55487  0.787031
7.57386  0.970779
7.59284  0.954737
7.61183  1.06075
7.63081  1.16184
7.6498  1.18196
7.66879  1.27879
7.68777  1.34844
7.70676  1.40681
7.72575  1.09324
7.74473  0.908047
7.76372  0.951694
7.7827  0.951931
7.80169  0.525186
7.82068  0.153904
7.83966  0.225011
7.85865  0.294359
7.87764  0.303527
7.89662  0.30696
7.91561  0.350202
7.93459  0.732804
7.95358  0.632927
7.97257  0.612265
7.99155  0.628855
8.01054  0.457551
8.02952  0.117462
8.04851  -0.0978123
8.0675  0.261703
8.08648  0.032566
8.10547  0.227313
8.12446  0.378531
8.14344  0.467128
8.16243  0.106379
8.18141  -0.0673066
8.2004  -0.274241
8.21939  -0.0788658
8.23837  0.274797
8.25736  0.551564
8.27635  0.642227
8.29533  0.718974
8.31432  0.457061
8.3333  0.504101
8.35229  0.275052
8.37128  0.0750606
8.39026  0.0119572
8.40925  0.0976077
8.42823  0.313862
8.44722  0.302148
8.46621  0.631033
8.48519  0.480847
8.50418  0.718585
8.52317  0.602957
8.54215  0.51607
8.56114  0.788768
8.58012  0.464116
8.59911  0.219319
8.6181  0.0248705
8.63708  0.192639
8.65607  0.238492
8.67506  0.34656
8.69404  0.360133
8.71303  0.202127
8.73201  -0.0390209
8.751  0.0532783
8.76999  -0.0529095
8.78897  -0.346218
8.80796  -0.566812
8.82694  -0.283809
8.84593  -0.0266569
8.86492  0.123736
8.8839  -0.175
8.90289  -0.24585
8.92188  -0.176484
8.94086  -0.0883474
8.95985  0.410624
8.97883  0.375983
8.99782  0.863663
9.01681  1.50406
9.03579  2.87189
9.05478  4.50968
9.07377  6.60989
9.09275  8.94889
9.11174  12.8675
9.13072  19.2158
9.14971  29.71
9.1687  45.7998
9.18768  70.476
9.20667  107.91
9.22565  167.085
9.24464  255.868
9.26363  402.853
9.28261  653.286
9.3016  1046.93
9.32059  1525.2
9.33957  2017.49
9.35856  2270.67
9.37754  2382.09
9.39653  2278.71
9.41552  2162.86
9.4345  1961.2
9.45349  1774.77
9.47248  1525.61
9.49146  1315.16
9.51045  1115.84
9.52943  964.295
9.54842  808.07
9.56741  646.306
9.58639  493.164
9.60538  360.859
9.62436  262.355
9.64335  191.171
9.66234  141.606
9.68132  105.387
9.70031  78.1736
9.7193  57.633
9.73828  42.2077
9.75727  31.3977
9.77625  23.3327
9.79524  17.2111
9.81423  12.9866
9.83321  9.71285
9.8522  6.61546
9.87119  3.82978
9.89017  2.07777
9.90916  0.785175
9.92814  -0.0304057
9.94713  -0.251532
9.96612  0.122982
9.9851  1.40459
10.0041  2.31308
10.0231  3.66117
10.0421  4.24894
10.061  4.81612
10.08  5.35581
10.099  5.72761
10.118  5.61865
10.137  6.21566
10.156  6.49107
10.175  6.89892
10.194  6.65361
10.2129  7.54124
10.2319  9.36292
10.2509  12.3821
10.2699  18.5816
10.2889  30.0359
10.3079  46.2033
10.3269  80.2412
10.3458  124.16
10.3648  184.281
10.3838  215.994
10.4028  203.327
10.4218  168.04
10.4408  136.637
10.4598  107.606
10.4787  82.5383
10.4977  73.6767
10.5167  64.1553
10.5357  58.8274
10.5547  57.8044
10.5737  54.6578
10.5927  53.643
10.6116  51.9481
10.6306  48.7525
10.6496  45.8233
10.6686  44.6692
10.6876  42.3397
10.7066  41.0322
10.7256  40.8626
10.7446  39.9636
10.7635  41.857
10.7825  42.6802
10.8015  44.4084
10.8205  46.5094
10.8395  48.4401
10.8585  49.3809
10.8775  50.0368
10.8964  50.5537
10.9154  48.9222
10.9344  46.7965
10.9534  42.9665
10.9724  39.3842
10.9914  34.1681
11.0104  29.9648
11.0293  24.9951
11.0483  20.5387
11.0673  17.4036
11.0863  14.0677
11.1053  11.6126
11.1243  9.78208
11.1433  8.33028
11.1622  6.66541
11.1812  4.89358
11.2002  3.59073
11.2192  2.79527
11.2382  2.16249
11.2572  1.73747
11.2762  1.40812
11.2951  1.32815
11.3141  1.2076
11.3331  1.45882
11.3521  1.84034
11.3711  2.59148
11.3901  3.41967
11.4091  4.18854
11.4281  5.19149
11.447  5.32388
11.466  4.36374
11.485  3.33955
11.504  2.13204
11.523  1.06325
11.542  0.512498
11.561  0.0991127
11.5799  -0.278678
11.5989  -0.410884
11.6179  -0.289501
11.6369  0.0398866
11.6559  0.0195291
11.6749  -0.350585
11.6939  -0.620592
11.7128  -0.981364
11.7318  -0.765681
11.7508  -0.305194
11.7698  -0.139184
11.7888  -0.369347
11.8078  -0.389006
11.8268  -0.272447
11.8457  -0.147491
11.8647  -0.114716
11.8837  -0.207131
11.9027  -0.00396107
11.9217  0.110177
11.9407  0.478021
11.9597  0.984219
11.9787  1.47409
11.9976  1.70393
12.0166  1.89083
12.0356  2.03408
12.0546  2.82056
12.0736  3.54976
12.0926  4.18967
12.1116  4.51562
12.1305  5.20515
12.1495  6.87498
12.1685  9.12652
12.1875  12.1366
12.2065  15.7296
12.2255  20.3118
12.2445  25.2423
12.2634  30.8598
12.2824  36.4741
12.3014  42.45
12.3204  48.0672
12.3394  53.13
12.3584  56.9569
12.3774  59.8473
12.3963  59.755
12.4153  58.8426
12.4343  56.139
12.4533  53.2731
12.4723  48.8884
12.4913  44.595
12.5103  40.5032
12.5293  37.4271
12.5482  35.0211
12.5672  32.8779
12.5862  31.7335
12.6052  30.569
12.6242  29.5529
12.6432  28.3948
12.6622  27.5037
12.6811  26.7702
12.7001  25.7716
12.7191  25.5674
12.7381  24.5801
12.7571  24.1426
12.7761  23.288
12.7951  23.0606
12.814  22.5826
12.833  22.1116
12.852  21.8609
12.871  21.6242
12.89  21.5605
12.909  21.4388
12.928  21.0593
12.9469  20.8648
12.9659  20.8049
12.9849  21.1613
13.0039  21.4116
13.0229  21.4327
13.0419  21.4291
13.0609  21.1766
13.0799  21.0738
13.0988  20.9851
13.1178  20.3588
13.1368  19.8293
13.1558  19.1838
13.1748  18.2481
13.1938  16.9708
13.2128  15.5367
13.2317  14.5145
13.2507  13.406
13.2697  11.8243
13.2887  10.3111
13.3077  8.57458
13.3267  7.19937
13.3457  5.52308
13.3646  4.27601
13.3836  3.07204
13.4026  2.05648
13.4216  1.16923
13.4406  0.297135
13.4596  0.36178
13.4786  0.0777762
13.4975  0.302462
13.5165  0.0804332
13.5355  0.243797
13.5545  0.596938
13.5735  0.96145
13.5925  1.47421
13.6115  1.65219
13.6305  2.12861
13.6494  2.90519
13.6684  3.69694
13.6874  4.41499
13.7064  5.37611
13.7254  6.98657
13.7444  8.40397
13.7634  10.0005
13.7823  11.1451
13.8013  12.1465
13.8203  13.4135
13.8393  14.5083
13.8583  15.0907
13.8773  15.0706
13.8963  14.8491
13.9152  14.1442
13.9342  13.6212
13.9532  12.5967
13.9722  11.2636
13.9912  9.72615
14.0102  8.30676
14.0292  7.25815
14.0481  6.51583
14.0671  5.78298
14.0861  5.2415
14.1051  4.59561
14.1241  4.08651
14.1431  3.30149
14.1621  2.98314
14.1811  2.4725
14.2  2.16746
14.219  1.70568
14.238  1.60584
14.257  1.03084
14.276  0.676275
14.295  0.684645
14.314  1.27277
14.3329  1.32663
14.3519  1.37914
14.3709  1.24665
14.3899  0.712754
14.4089  0.19165
14.4279  -0.0516409
14.4469  0.12121
14.4658  0.359074
14.4848  0.225142
14.5038  0.145079
14.5228  0.122631
14.5418  -0.007185
14.5608  -0.17485
14.5798  0.0501806
14.5987  -0.273747
14.6177  -0.0424607
14.6367  0.104721
14.6557  0.293944
14.6747  0.141902
14.6937  -0.430075
14.7127  -0.132942
14.7317  -0.0736122
14.7506  -0.388177
14.7696  -0.562633
14.7886  -0.484078
14.8076  -0.471742
14.8266  -0.156371
14.8456  -0.163273
14.8646  0.505059
14.8835  0.361455
14.9025  0.299642
14.9215  0.423681
14.9405  0.469031
14.9595  0.0404006
14.9785  -0.193594
14.9975  -0.15375
15.0164  -0.0293608
15.0354  0.328128
15.0544  0.153663
15.0734  0.382367
15.0924  0.873128
15.1114  1.182
15.1304  1.32128
15.1493  1.27782
15.1683  1.38291
15.1873  1.51222
15.2063  1.78942
15.2253  2.09157
15.2443  2.19243
15.2633  2.79572
15.2823  2.87759
15.3012  3.63948
15.3202  4.25352
15.3392  5.1835
15.3582  5.69894
15.3772  6.10781
15.3962  6.79937
15.4152  7.18161
15.4341  7.51816
15.4531  7.6538
15.4721  8.13998
15.4911  8.13714
15.5101  7.852
15.5291  7.32285
15.5481  7.26623
15.567  7.35964
15.586  7.46078
15.605  7.60698
15.624  7.79034
15.643  8.3795
15.662  9.24692
15.681  10.3785
15.6999  11.531
15.7189  13.0708
15.7379  15.21
15.7569  17.974
15.7759  21.8299
15.7949  26.4339
15.8139  32.4785
15.8329  40.1534
15.8518  48.539
15.8708  55.7597
15.8898  60.1933
15.9088  61.8775
15.9278  60.9133
15.9468  57.2787
15.9658  50.6891
15.9847  43.3337
16.0037  36.4979
16.0227  31.8103
16.0417  28.5483
16.0607  26.7944
16.0797  25.4911
16.0987  24.6957
16.1176  24.2751
16.1366  23.9995
16.1556  23.4511
16.1746  22.9369
16.1936  21.8767
16.2126  21.6708
16.2316  20.183
16.2505  19.405
16.2695  18.2061
16.2885  16.6935
16.3075  14.6862
16.3265  13.2293
16.3455  11.7765
16.3645  10.9229
16.3834  10.1748
16.4024  9.56764
16.4214  9.13222
16.4404  8.60388
16.4594  8.23043
16.4784  6.89596
16.4974  5.87306
16.5164  4.81336
16.5353  4.08338
16.5543  3.74692
16.5733  3.47036
16.5923  3.08925
16.6113  2.02421
16.6303  1.47727
16.6493  0.800585
16.6682  0.804691
16.6872  0.39949
16.7062  0.322745
16.7252  0.284358
16.7442  0.398644
16.7632  0.161848
16.7822  -0.0275029
16.8011  -0.000828651
16.8201  0.0541609
16.8391  0.0607988
16.8581  -0.157872
16.8771  -0.155329
16.8961  -0.402919
16.9151  -0.523543
16.934  -0.606772
16.953  -0.521233
16.972  -0.717327
16.991  -0.853455
17.01  -0.922981
17.029  -0.839788
17.048  -0.869143
17.067  -0.610132
17.0859  -0.267097
17.1049  -0.126004
17.1239  -0.270262
17.1429  0.179228
17.1619  0.625623
17.1809  1.85255
17.1999  2.71807
17.2188  3.39301
17.2378  3.78787
17.2568  4.28544
17.2758  5.56711
17.2948  7.31877
17.3138  9.43521
17.3328  12.3967
17.3517  16.9661
17.3707  24.9034
17.3897  37.2912
17.4087  59.9003
17.4277  97.526
17.4467  163.668
17.4657  250.87
17.4846  355.387
17.5036  423.625
17.5226  445.216
17.5416  402.245
17.5606  333.436
17.5796  259.821
17.5986  209.567
17.6176  181.872
17.6365  168.204
17.6555  164.648
17.6745  164.098
17.6935  163.55
17.7125  155.037
17.7315  139.685
17.7505  118.023
17.7694  96.182
17.7884  77.9591
17.8074  63.9246
17.8264  53.5651
17.8454  46.0117
17.8644  39.3845
17.8834  33.912
17.9023  28.92
17.9213  25.1056
17.9403  21.8398
17.9593  18.5699
17.9783  15.5139
17.9973  12.628
18.0163  10.8904
18.0352  9.32617
18.0542  8.21545
18.0732  6.8518
18.0922  5.77532
18.1112  4.88775
18.1302  4.39794
18.1492  3.84766
18.1682  3.27213
18.1871  2.73832
18.2061  2.32945
18.2251  2.35479
18.2441  2.60725
18.2631  2.78118
18.2821  2.96161
18.3011  3.03453
18.32  3.4585
18.339  3.98872
18.358  4.6098
18.377  5.5259
18.396  6.76871
18.415  9.00982
18.434  11.5253
18.4529  15.171
18.4719  19.7867
18.4909  25.7596
18.5099  34.3518
18.5289  45.8158
18.5479  61.4749
18.5669  82.0324
18.5858  107.794
18.6048  137.508
18.6238  165.021
18.6428  184.982
18.6618  193.251
18.6808  189.211
18.6998  177.607
18.7188  161.911
18.7377  145.976
18.7567  130.46
18.7757  114.37
18.7947  98.9534
18.8137  83.779
18.8327  70.257
18.8517  58.6019
18.8706  48.1096
18.8896  39.2425
18.9086  30.5366
18.9276  23.5058
18.9466  17.5805
18.9656  13.2288
18.9846  9.83173
19.0035  7.18969
19.0225  4.95908
19.0415  3.32637
19.0605  2.53915
19.0795  1.82269
19.0985  1.40025
19.1175  1.26766
19.1364  2.42229
19.1554  3.64356
19.1744  5.1925
19.1934  7.21117
19.2124  10.4351
19.2314  14.2725
19.2504  18.8457
19.2694  23.6888
19.2883  29.5084
19.3073  37.5194
19.3263  47.7763
19.3453  56.794
19.3643  59.8889
19.3833  57.2996
19.4023  52.1231
19.4212  48.4021
19.4402  45.7187
19.4592  43.8384
19.4782  41.7301
19.4972  39.3451
19.5162  36.7365
19.5352  33.858
19.5541  31.0884
19.5731  28.6507
19.5921  26.2913
19.6111  24.3125
19.6301  22.1077
19.6491  18.7676
19.6681  16.5016
19.687  13.2969
19.706  10.7226
19.725  8.56348
19.744  7.17508
19.763  6.64203
19.782  6.59074
19.801  5.98957
19.82  6.22453
19.8389  6.09258
19.8579  6.90395
19.8769  6.9306
19.8959  7.23058
19.9149  7.36272
19.9339  7.78812
19.9529  8.81713
19.9718  9.14634
19.9908  9.99855
20.0098  10.2042
20.0288  11.031
20.0478  11.1469
20.0668  11.2365
20.0858  11.1518
20.1047  11.5409
20.1237  11.3505
20.1427  12.0869
20.1617  12.6366
20.1807  13.4309
20.1997  13.5003
20.2187  13.7442
20.2376  14.3527
20.2566  14.4905
20.2756  15.3277
20.2946  15.8281
20.3136  16.8623
20.3326  17.226
20.3516  18.253
20.3706  19.0228
20.3895  20.4447
20.4085  21.9005
20.4275  23.0487
20.4465  24.6709
20.4655  26.0283
20.4845  27.7708
20.5035  28.8842
20.5224  30.2772
20.5414  31.3267
20.5604  33.4515
20.5794  34.3821
20.5984  35.8671
20.6174  37.776
20.6364  39.9028
20.6553  42.2004
20.6743  44.2754
20.6933  46.942
20.7123  48.6431
20.7313  49.2908
20.7503  49.0813
20.7693  47.7141
20.7882  45.4822
20.8072  43.0556
20.8262  40.083
20.8452  37.7621
20.8642  34.3765
20.8832  32.2064
20.9022  28.4215
20.9212  25.5051
20.9401  22.3176
20.9591  19.7423
20.9781  17.3534
20.9971  15.4352
21.0161  13.3883
21.0351  11.6102
21.0541  9.90497
21.073  8.28886
21.092  6.77742
21.111  5.70922
21.13  4.56032
21.149  3.8719
21.168  3.27884
21.187  2.94886
21.2059  2.76001
21.2249  2.74808
21.2439  2.64988
21.2629  2.94492
21.2819  3.96018
21.3009  5.24199
21.3199  6.59015
21.3388  7.51572
21.3578  8.43004
21.3768  8.66545
21.3958  8.7719
21.4148  8.433
21.4338  8.49304
21.4528  8.39246
21.4717  8.66823
21.4907  8.87131
21.5097  9.59963
21.5287  10.768
21.5477  12.5257
21.5667  13.5057
21.5857  12.6571
21.6047  10.4301
21.6236  7.62235
21.6426  5.22819
21.6616  3.06039
21.6806  1.81615
21.6996  1.04892
21.7186  0.484655
21.7376  0.168782
21.7565  0.026887
21.7755  0.205683
21.7945  0.218137
21.8135  -0.181946
21.8325  -0.565053
21.8515  -0.635818
21.8705  -0.51461
21.8894  -0.544552
21.9084  -0.571476
21.9274  -0.485772
21.9464  -0.333494
21.9654  -0.0868614
21.9844  -0.0663072
22.0034  0.0202031
22.0223  0.0343907
22.0413  0.279624
22.0603  0.212785
22.0793  0.212234
22.0983  0.0447403
22.1173  0.118983
22.1363  0.138012
22.1553  0.312657
22.1742  0.186089
22.1932  -0.00424216
22.2122  0.00648101
22.2312  0.0861616
22.2502  0.190834
22.2692  0.187717
22.2882  0.318284
22.3071  0.454788
22.3261  0.427956
22.3451  0.389942
22.3641  0.283001
22.3831  0.175833
22.4021  0.0783611
22.4211  -0.0497319
22.44  -0.0718149
22.459  -0.0588952
22.478  0.201307
22.497  0.366804
22.516  0.0309558
22.535  -0.161055
22.554  -0.268941
22.5729  -0.198301
22.5919  0.0666996
22.6109  0.387934
22.6299  0.656951
22.6489  0.450982
22.6679  0.252993
22.6869  0.198924
22.7059  0.236909
22.7248  0.208977
22.7438  0.214124
22.7628  0.200934
22.7818  0.413935
22.8008  0.372006
22.8198  0.243169
22.8388  0.0602475
22.8577  0.0324693
22.8767  0.119293
22.8957  0.187833
22.9147  0.217014
22.9337  0.316373
22.9527  0.297828
22.9717  0.413067
22.9906  0.462732
23.0096  0.65561
23.0286  0.445154
23.0476  0.41195
23.0666  0.251097
23.0856  0.270734
23.1046  -0.1156
23.1235  -0.076088
23.1425  0.0133314
23.1615  0.138961
23.1805  0.0354148
23.1995  -0.111586
23.2185  0.226661
23.2375  0.375321
23.2565  0.249733
23.2754  -0.0331391
23.2944  -0.0205414
23.3134  0.00866041
23.3324  -0.0074321
23.3514  0.1225
23.3704  0.380872
23.3894  0.443921
23.4083  0.218681
23.4273  0.0508802
23.4463  0.030862
23.4653  0.14509
23.4843  0.0562362
23.5033  -0.0179887
23.5223  0.0199546
23.5412  0.187143
23.5602  0.135357
23.5792  0.207733
23.5982  0.477708
23.6172  0.639031
23.6362  0.436957
23.6552  0.101508
23.6741  -0.173445
23.6931  -0.0725402
23.7121  0.0552868
23.7311  0.318947
23.7501  0.502448
23.7691  0.609974
23.7881  0.420992
23.8071  0.388805
23.826  0.321477
23.845  0.212866
23.864  0.16458
23.883  0.0615052
23.902  -0.0299873
23.921  -0.142324
23.94  -0.0117588
23.9589  -0.0943227
23.9779  -0.146521
23.9969  -0.0610648
24.0159  0.131177
24.0349  0.366516
24.0539  0.269287
24.0729  0.160392
24.0918  -0.165684
24.1108  -0.241541
24.1298  -0.304205
24.1488  0.00563709
24.1678  0.230182
24.1868  0.275586
24.2058  -0.11333
24.2247  -0.193776
24.2437  0.088074