File: data/processed/Run1_XRD/6_ReMoB2_28pGPa_355psi_P1_C4_D1w_053.dat
2.82731  0.358805
2.84629  0.529405
2.86528  0.786281
2.88427  0.717892
2.90325  0.81651
2.92224  0.967651
2.94122  1.44842
2.96021  1.27676
2.9792  1.09257
2.99818  0.703839
3.01717  0.0388287
3.03616  0.154862
3.05514  0.415772
3.07413  1.01832
3.09311  1.17908
3.1121  1.3898
3.13109  1.4154
3.15007  1.02389
3.16906  1.22821
3.18805  0.799421
3.20703  1.34936
3.22602  1.72842
3.245  1.60475
3.26399  1.39072
3.28298  1.57701
3.30196  2.05548
3.32095  2.66933
3.33993  3.09843
3.35892  3.83798
3.37791  5.19334
3.39689  8.58049
3.41588  13.6507
3.43487  18.5782
3.45385  28.7643
3.47284  32.7237
3.49182  27.7717
3.51081  15.0915
3.5298  11.4159
3.54878  11.6674
3.56777  11.8157
3.58676  10.0999
3.60574  2.14761
3.62473  1.43048
3.64371  0.923072
3.6627  0.656664
3.68169  0.319073
3.70067  0.437282
3.71966  0.710847
3.73864  0.659715
3.75763  0.602072
3.77662  0.57069
3.7956  0.717662
3.81459  0.52882
3.83358  0.683816
3.85256  0.621408
3.87155  0.867703
3.89053  1.20091
3.90952  1.3011
3.92851  1.60057
3.94749  1.17267
3.96648  0.785686
3.98547  0.395696
4.00445  0.61559
4.02344  0.670725
4.04242  0.962473
4.06141  1.29837
4.0804  1.33128
4.09938  1.45271
4.11837  1.2648
4.13735  0.84488
4.15634  0.364499
4.17533  0.494292
4.19431  0.455575
4.2133  0.547863
4.23229  0.273602
4.25127  0.649461
4.27026  0.947878
4.28924  0.546971
4.30823  0.672599
4.32722  0.304938
4.3462  0.639281
4.36519  0.742447
4.38418  0.975959
4.40316  0.857327
4.42215  0.556516
4.44113  0.968844
4.46012  0.705353
4.47911  0.288757
4.49809  0.0288015
4.51708  0.220314
4.53606  0.509201
4.55505  0.328192
4.57404  0.235822
4.59302  -0.0275506
4.61201  -0.182387
4.631  -0.0819199
4.64998  -0.154176
4.66897  0.151122
4.68795  0.337329
4.70694  0.398663
4.72593  0.79792
4.74491  1.16555
4.7639  1.17408
4.78289  1.12312
4.80187  1.3846
4.82086  1.55163
4.83984  1.64968
4.85883  1.26177
4.87782  0.845861
4.8968  0.923366
4.91579  1.07911
4.93478  1.06908
4.95376  0.417082
4.97275  0.256301
4.99173  0.123843
5.01072  0.258326
5.02971  0.0190541
5.04869  0.595396
5.06768  0.703991
5.08666  1.22931
5.10565  1.08833
5.12464  1.02292
5.14362  1.2136
5.16261  0.851761
5.1816  0.383228
5.20058  -0.203093
5.21957  0.0496677
5.23855  0.574881
5.25754  0.847759
5.27653  0.836069
5.29551  0.361964
5.3145  0.362236
5.33349  0.729373
5.35247  1.15712
5.37146  1.22816
5.39044  0.54502
5.40943  0.105826
5.42842  0.083518
5.4474  0.486553
5.46639  0.391245
5.48537  0.335695
5.50436  0.651308
5.52335  0.940382
5.54233  1.17115
5.56132  0.818039
5.58031  0.71387
5.59929  0.415311
5.61828  0.269341
5.63726  -0.0657913
5.65625  0.027395
5.67524  0.580495
5.69422  0.708556
5.71321  0.765593
5.7322  0.301417
5.75118  0.545933
5.77017  0.371701
5.78915  0.395894
5.80814  0.419089
5.82713  0.737606
5.84611  0.954771
5.8651  1.09341
5.88408  1.00004
5.90307  1.14938
5.92206  1.01713
5.94104  1.12397
5.96003  1.2622
5.97902  0.892979
5.998  0.411944
6.01699  0.0887722
6.03597  -0.196827
6.05496  -0.212989
6.07395  -0.0679435
6.09293  0.0458632
6.11192  0.20226
6.13091  0.622317
6.14989  0.957965
6.16888  0.841861
6.18786  0.440733
6.20685  0.0523418
6.22584  0.341548
6.24482  0.545549
6.26381  1.09069
6.28279  0.818696
6.30178  0.549038
6.32077  0.200153
6.33975  0.259494
6.35874  0.323022
6.37773  0.20042
6.39671  0.467691
6.4157  0.697602
6.43468  1.45664
6.45367  1.82125
6.47266  2.16118
6.49164  3.36412
6.51063  6.04828
6.52962  10.4228
6.5486  16.3036
6.56759  23.298
6.58657  30.0766
6.60556  33.0226
6.62455  30.5864
6.64353  25.4225
6.66252  19.4008
6.6815  15.1376
6.70049  11.7483
6.71948  9.93646
6.73846  9.10154
6.75745  9.96357
6.77644  13.1434
6.79542  19.1461
6.81441  29.9973
6.83339  47.3424
6.85238  70.9302
6.87137  101.959
6.89035  125.756
6.90934  134.903
6.92833  125.427
6.94731  105.561
6.9663  82.9874
6.98528  63.2376
7.00427  46.3282
7.02326  34.1155
7.04224  24.7088
7.06123  18.0223
7.08021  13.1642
7.0992  9.22141
7.11819  6.64318
7.13717  5.32433
7.15616  4.14368
7.17515  2.90597
7.19413  1.50643
7.21312  1.09442
7.2321  0.823931
7.25109  0.82548
7.27008  0.515821
7.28906  0.578022
7.30805  0.493438
7.32704  0.742171
7.34602  0.934508
7.36501  1.13571
7.38399  0.858018
7.40298  0.934216
7.42197  0.531232
7.44095  0.696093
7.45994  0.709338
7.47892  0.733239
7.49791  0.45457
7.5169  0.410061
7.53588  0.158763
7.55487  0.218043
7.57386  0.502483
7.59284  0.871828
7.61183  1.26513
7.63081  0.874065
7.6498  1.16339
7.66879  1.29752
7.68777  1.24947
7.70676  0.54123
7.72575  0.340202
7.74473  0.0666833
7.76372  0.384381
7.7827  0.313728
7.80169  0.0795503
7.82068  -0.110723
7.83966  -0.32176
7.85865  0.0329586
7.87764  0.313931
7.89662  0.848892
7.91561  1.07745
7.93459  0.975615
7.95358  0.594425
7.97257  0.34936
7.99155  0.131637
8.01054  0.132602
8.02952  0.0600603
8.04851  -0.0723376
8.0675  0.163718
8.08648  0.384444
8.10547  0.705307
8.12446  0.447193
8.14344  0.607847
8.16243  0.280721
8.18141  0.393197
8.2004  0.128384
8.21939  0.379705
8.23837  0.527654
8.25736  0.361404
8.27635  0.657213
8.29533  0.663517
8.31432  0.380607
8.3333  -0.0130318
8.35229  0.0761856
8.37128  0.259488
8.39026  0.35006
8.40925  0.0819239
8.42823  0.294001
8.44722  0.532448
8.46621  0.698563
8.48519  0.619145
8.50418  0.745096
8.52317  0.723625
8.54215  0.62752
8.56114  0.329997
8.58012  0.523137
8.59911  0.73631
8.6181  0.899789
8.63708  0.825178
8.65607  0.637289
8.67506  0.915313
8.69404  0.900668
8.71303  0.848639
8.73201  0.37744
8.751  0.123201
8.76999  -0.265799
8.78897  -0.354596
8.80796  -0.478971
8.82694  -0.524075
8.84593  -0.54754
8.86492  -0.456219
8.8839  0.00629513
8.90289  -0.260672
8.92188  -0.319552
8.94086  -0.0691565
8.95985  -0.0745084
8.97883  -0.180816
8.99782  -0.184328
9.01681  0.694918
9.03579  1.28175
9.05478  2.41599
9.07377  3.30793
9.09275  4.95616
9.11174  7.41165
9.13072  10.9648
9.14971  15.8899
9.1687  22.528
9.18768  32.2429
9.20667  47.4221
9.22565  70.3515
9.24464  103.852
9.26363  155.623
9.28261  232.341
9.3016  327.626
9.32059  435.535
9.33957  540.914
9.35856  620.305
9.37754  684.919
9.39653  735.521
9.41552  803.927
9.4345  883.281
9.45349  973.024
9.47248  1048.52
9.49146  1084.09
9.51045  1080.13
9.52943  1027
9.54842  937.075
9.56741  816.12
9.58639  667.506
9.60538  521.178
9.62436  395.397
9.64335  300.325
9.66234  229.854
9.68132  177.487
9.70031  137.093
9.7193  104.99
9.73828  78.2821
9.75727  57.2222
9.77625  41.8108
9.79524  30.0937
9.81423  21.798
9.83321  16.0706
9.8522  11.1135
9.87119  7.64252
9.89017  4.75401
9.90916  2.87008
9.92814  2.17362
9.94713  1.98054
9.96612  2.82876
9.9851  2.60133
10.0041  2.59249
10.0231  3.48566
10.0421  4.24322
10.061  5.55769
10.08  6.59541
10.099  7.65446
10.118  7.63007
10.137  7.21838
10.156  8.58299
10.175  8.89082
10.194  14.5679
10.2129  17.4309
10.2319  20.3078
10.2509  19.8292
10.2699  19.605
10.2889  15.102
10.3079  13.254
10.3269  14.2238
10.3458  16.2359
10.3648  19.2953
10.3838  23.4678
10.4028  27.7001
10.4218  32.6457
10.4408  37.8506
10.4598  42.8402
10.4787  45.781
10.4977  48.3215
10.5167  48.2006
10.5357  48.9361
10.5547  46.0316
10.5737  43.8759
10.5927  40.8208
10.6116  37.9992
10.6306  35.4439
10.6496  35.4524
10.6686  36.5302
10.6876  37.7959
10.7066  39.0961
10.7256  42.0024
10.7446  43.7511
10.7635  46.3785
10.7825  47.3259
10.8015  47.471
10.8205  46.1021
10.8395  43.9377
10.8585  41.9991
10.8775  39.5958
10.8964  37.6061
10.9154  34.3513
10.9344  32.1143
10.9534  28.5972
10.9724  26.0998
10.9914  22.8676
11.0104  20.1981
11.0293  18.0111
11.0483  15.6509
11.0673  13.6849
11.0863  11.5643
11.1053  9.74189
11.1243  8.08589
11.1433  6.11622
11.1622  4.78392
11.1812  3.43411
11.2002  2.45002
11.2192  1.63146
11.2382  0.804313
11.2572  0.212748
11.2762  -0.348487
11.2951  -0.311609
11.3141  -0.0457539
11.3331  0.0992687
11.3521  0.423728
11.3711  0.369434
11.3901  0.89878
11.4091  1.60731
11.4281  2.43405
11.447  2.68058
11.466  2.36532
11.485  1.92763
11.504  0.88064
11.523  0.32204
11.542  -0.605353
11.561  -1.13085
11.5799  -1.53626
11.5989  -1.32201
11.6179  -0.939758
11.6369  -0.646412
11.6559  -0.506274
11.6749  -0.00450646
11.6939  0.673259
11.7128  0.763585
11.7318  1.04472
11.7508  1.49469
11.7698  2.43005
11.7888  2.75071
11.8078  3.051
11.8268  3.25458
11.8457  3.30549
11.8647  3.90456
11.8837  3.84909
11.9027  4.46903
11.9217  4.48105
11.9407  4.7562
11.9597  4.22531
11.9787  4.31633
11.9976  4.03309
12.0166  3.58986
12.0356  3.82292
12.0546  3.89521
12.0736  3.92117
12.0926  3.84222
12.1116  3.91508
12.1305  4.14764
12.1495  4.12637
12.1685  5.04163
12.1875  6.37711
12.2065  8.33872
12.2255  10.269
12.2445  13.036
12.2634  16.4216
12.2824  20.9582
12.3014  27.2028
12.3204  36.2115
12.3394  59.0971
12.3584  76.0289
12.3774  196.267
12.3963  264.715
12.4153  378.017
12.4343  439.833
12.4533  441.906
12.4723  306.914
12.4913  239.986
12.5103  206.298
12.5293  155.153
12.5482  142.563
12.5672  116.222
12.5862  106.212
12.6052  95.2509
12.6242  87.2825
12.6432  84.2722
12.6622  78.178
12.6811  77.1854
12.7001  73.3435
12.7191  72.0152
12.7381  70.4086
12.7571  68.3613
12.7761  67.9812
12.7951  65.5534
12.814  64.5302
12.833  60.4934
12.852  58.0409
12.871  53.3834
12.89  50.1897
12.909  46.6354
12.928  42.9825
12.9469  41.0208
12.9659  38.1111
12.9849  36.6993
13.0039  34.7867
13.0229  33.5144
13.0419  32.2129
13.0609  31.2741
13.0799  30.6559
13.0988  30.5512
13.1178  30.5837
13.1368  31.4024
13.1558  32.6841
13.1748  35.4909
13.1938  41.0563
13.2128  49.9111
13.2317  68.3844
13.2507  101.205
13.2697  152.106
13.2887  226.193
13.3077  277.541
13.3267  306.204
13.3457  280.209
13.3646  221.35
13.3836  154.603
13.4026  107.635
13.4216  69.0891
13.4406  45.6362
13.4596  27.3143
13.4786  17.1037
13.4975  10.3226
13.5165  6.32771
13.5355  3.90326
13.5545  2.86614
13.5735  1.78983
13.5925  1.72851
13.6115  1.03699
13.6305  0.88478
13.6494  1.17116
13.6684  1.26035
13.6874  2.04786
13.7064  3.03931
13.7254  4.61789
13.7444  6.15643
13.7634  7.59056
13.7823  8.83611
13.8013  10.2129
13.8203  11.5076
13.8393  12.1446
13.8583  13.2477
13.8773  13.2602
13.8963  12.9613
13.9152  11.7502
13.9342  10.9237
13.9532  9.45875
13.9722  8.47253
13.9912  7.299
14.0102  6.17108
14.0292  5.25706
14.0481  3.95663
14.0671  3.0353
14.0861  2.13437
14.1051  1.44744
14.1241  0.740729
14.1431  0.294742
14.1621  0.13798
14.1811  -0.26263
14.2  -0.412752
14.219  -0.498788
14.238  -0.648432
14.257  -0.718846
14.276  -0.797436
14.295  -0.774592
14.314  -0.436424
14.3329  -0.149764
14.3519  0.119316
14.3709  0.495653
14.3899  0.0745327
14.4089  -0.298348
14.4279  -0.290289
14.4469  0.0926024
14.4658  0.414915
14.4848  0.510067
14.5038  0.430086
14.5228  0.637476
14.5418  0.483363
14.5608  0.344209
14.5798  0.473028
14.5987  0.524465
14.6177  0.933839
14.6367  0.963358
14.6557  0.561173
14.6747  0.383498
14.6937  0.504054
14.7127  0.576826
14.7317  0.278966
14.7506  0.0440951
14.7696  0.213318
14.7886  0.553223
14.8076  0.465096
14.8266  0.304404
14.8456  -0.160208
14.8646  -0.107882
14.8835  0.00347302
14.9025  -0.154206
14.9215  -0.200587
14.9405  0.365895
14.9595  0.777017
14.9785  0.706085
14.9975  0.646241
15.0164  0.395737
15.0354  0.654096
15.0544  0.183306
15.0734  0.0171658
15.0924  -0.0467249
15.1114  -0.19196
15.1304  -0.345842
15.1493  -0.335629
15.1683  -0.0783884
15.1873  0.340745
15.2063  0.649218
15.2253  0.956565
15.2443  0.803467
15.2633  0.927586
15.2823  0.900324
15.3012  2.15967
15.3202  2.52103
15.3392  3.54629
15.3582  4.46218
15.3772  5.07193
15.3962  5.93265
15.4152  6.71871
15.4341  7.47978
15.4531  8.75844
15.4721  8.98777
15.4911  9.67662
15.5101  9.98596
15.5291  10.1139
15.5481  10.1063
15.567  9.74529
15.586  9.20303
15.605  9.02764
15.624  8.25981
15.643  7.59613
15.662  7.19787
15.681  7.26625
15.6999  7.52909
15.7189  7.98362
15.7379  8.51147
15.7569  8.78305
15.7759  9.10182
15.7949  9.52846
15.8139  9.93454
15.8329  10.4222
15.8518  10.965
15.8708  11.7332
15.8898  12.6398
15.9088  13.8091
15.9278  14.8024
15.9468  15.4822
15.9658  15.4205
15.9847  16.0588
16.0037  16.1832
16.0227  16.3465
16.0417  16.3738
16.0607  16.4503
16.0797  17.1305
16.0987  17.968
16.1176  18.7965
16.1366  19.5119
16.1556  20.1226
16.1746  20.8714
16.1936  21.336
16.2126  21.6454
16.2316  21.5852
16.2505  20.8426
16.2695  19.6678
16.2885  18.0251
16.3075  16.5478
16.3265  15.0158
16.3455  14.3101
16.3645  13.2801
16.3834  11.9033
16.4024  10.6575
16.4214  9.77823
16.4404  9.55618
16.4594  9.44896
16.4784  9.80473
16.4974  8.93812
16.5164  8.44332
16.5353  8.46259
16.5543  8.80919
16.5733  8.25669
16.5923  8.12605
16.6113  7.41532
16.6303  6.82089
16.6493  6.24664
16.6682  5.37686
16.6872  4.81815
16.7062  3.58002
16.7252  2.63629
16.7442  1.80934
16.7632  1.3007
16.7822  0.962435
16.8011  0.690754
16.8201  0.729226
16.8391  0.514788
16.8581  0.488734
16.8771  0.270733
16.8961  0.338852
16.9151  0.144489
16.934  -0.0568447
16.953  -0.461169
16.972  -0.433117
16.991  -0.0991213
17.01  0.0443274
17.029  -0.136637
17.048  -0.530685
17.067  -0.434278
17.0859  -0.735887
17.1049  -0.919833
17.1239  -0.671519
17.1429  -0.2404
17.1619  -0.158003
17.1809  0.0396582
17.1999  -0.0356348
17.2188  0.385629
17.2378  0.772603
17.2568  1.33398
17.2758  1.51508
17.2948  1.89388
17.3138  2.29633
17.3328  3.38265
17.3517  4.46931
17.3707  5.72121
17.3897  7.20143
17.4087  9.2397
17.4277  11.9296
17.4467  15.1975
17.4657  19.05
17.4846  24.2884
17.5036  30.7196
17.5226  39.2245
17.5416  50.2032
17.5606  61.4546
17.5796  72.5677
17.5986  79.5522
17.6176  85.2308
17.6365  86.6849
17.6555  87.908
17.6745  87.9206
17.6935  90.9923
17.7125  94.6029
17.7315  99.0418
17.7505  99.5805
17.7694  98.4607
17.7884  95.3217
17.8074  93.9001
17.8264  97.2357
17.8454  96.0565
17.8644  120.024
17.8834  113.248
17.9023  123.164
17.9213  114.678
17.9403  100.977
17.9593  80.7095
17.9783  72.8369
17.9973  51.7924
18.0163  46.8148
18.0352  33.0757
18.0542  30.1636
18.0732  22.3659
18.0922  18.3153
18.1112  16.3464
18.1302  13.9135
18.1492  12.2937
18.1682  10.1979
18.1871  9.4897
18.2061  7.90299
18.2251  6.65765
18.2441  5.86262
18.2631  5.74703
18.2821  6.02147
18.3011  6.05097
18.32  6.05895
18.339  6.08245
18.358  6.13508
18.377  5.98916
18.396  5.97946
18.415  6.62964
18.434  7.19174
18.4529  7.64548
18.4719  8.18858
18.4909  9.68114
18.5099  11.571
18.5289  14.118
18.5479  16.958
18.5669  20.3373
18.5858  23.9961
18.6048  27.903
18.6238  32.5444
18.6428  37.8765
18.6618  43.9032
18.6808  50.3898
18.6998  57.2355
18.7188  62.3541
18.7377  65.4086
18.7567  66.5243
18.7757  67.4131
18.7947  67.748
18.8137  67.1842
18.8327  64.188
18.8517  59.7151
18.8706  53.709
18.8896  48.5972
18.9086  43.105
18.9276  37.5501
18.9466  31.9495
18.9656  27.598
18.9846  23.8611
19.0035  20.0006
19.0225  16.4245
19.0415  12.6745
19.0605  9.42346
19.0795  6.80056
19.0985  4.78036
19.1175  3.03251
19.1364  1.74631
19.1554  0.950759
19.1744  0.61563
19.1934  0.803538
19.2124  1.77786
19.2314  2.79014
19.2504  4.21342
19.2694  5.69664
19.2883  7.85334
19.3073  10.733
19.3263  14.8891
19.3453  20.6221
19.3643  28.958
19.3833  39.8346
19.4023  52.1141
19.4212  62.5533
19.4402  68.6554
19.4592  69.2958
19.4782  65.8167
19.4972  60.8761
19.5162  55.7663
19.5352  51.0642
19.5541  46.8223
19.5731  41.388
19.5921  35.5149
19.6111  29.2299
19.6301  24.5156
19.6491  20.0413
19.6681  17.6008
19.687  15.0389
19.706  13.2741
19.725  11.3697
19.744  10.4234
19.763  9.14112
19.782  7.69635
19.801  6.34007
19.82  5.45711
19.8389  4.93151
19.8579  4.02847
19.8769  3.83161
19.8959  3.09841
19.9149  3.35432
19.9339  3.46259
19.9529  4.01192
19.9718  4.501
19.9908  5.62883
20.0098  6.02782
20.0288  6.81614
20.0478  7.40717
20.0668  8.50891
20.0858  9.6807
20.1047  10.9035
20.1237  11.747
20.1427  12.7163
20.1617  13.6758
20.1807  14.2862
20.1997  14.4667
20.2187  14.6199
20.2376  14.7126
20.2566  14.3436
20.2756  14.344
20.2946  14.6625
20.3136  15.7365
20.3326  16.2352
20.3516  16.5917
20.3706  16.9988
20.3895  18.0328
20.4085  18.9127
20.4275  19.8259
20.4465  20.7079
20.4655  21.7822
20.4845  22.6683
20.5035  23.7131
20.5224  24.8775
20.5414  26.2127
20.5604  28.4541
20.5794  30.5077
20.5984  32.716
20.6174  34.7028
20.6364  37.2287
20.6553  40.0332
20.6743  43.0015
20.6933  45.7769
20.7123  48.581
20.7313  52.2548
20.7503  55.4739
20.7693  60.3202
20.7882  65.3569
20.8072  75.6608
20.8262  84.9512
20.8452  98.88
20.8642  118.497
20.8832  151.368
20.9022  193.939
20.9212  251.426
20.9401  302.884
20.9591  291.986
20.9781  228.337
20.9971  174.435
21.0161  122.604
21.0351  86.2986
21.0541  61.2429
21.073  40.9336
21.092  29.893
21.111  21.7245
21.13  16.5964
21.149  12.4765
21.168  9.26874
21.187  6.56936
21.2059  4.49769
21.2249  3.19582
21.2439  1.92331
21.2629  1.14634
21.2819  0.59059
21.3009  0.818799
21.3199  1.39927
21.3388  2.31374
21.3578  3.48175
21.3768  5.13188
21.3958  6.75378
21.4148  8.04486
21.4338  9.08373
21.4528  9.77977
21.4717  10.2505
21.4907  10.4216
21.5097  10.4943
21.5287  10.3923
21.5477  10.9577
21.5667  11.8267
21.5857  13.0835
21.6047  13.9536
21.6236  13.6615
21.6426  12.2516
21.6616  9.54649
21.6806  6.88192
21.6996  4.575
21.7186  3.20382
21.7376  2.29149
21.7565  1.85619
21.7755  1.49961
21.7945  0.946422
21.8135  0.308671
21.8325  -0.435422
21.8515  -0.626443
21.8705  -0.855733
21.8894  -0.77393
21.9084  -0.782643
21.9274  -0.839184
21.9464  -0.644164
21.9654  -0.514822
21.9844  -0.326357
22.0034  -0.0771165
22.0223  0.24616
22.0413  0.417349
22.0603  0.314196
22.0793  0.39579
22.0983  0.177265
22.1173  0.236195
22.1363  0.395942
22.1553  0.501739
22.1742  0.553365
22.1932  0.744012
22.2122  0.865827
22.2312  0.6829
22.2502  0.457534
22.2692  0.313979
22.2882  0.345579
22.3071  0.382626
22.3261  0.390205
22.3451  0.289099
22.3641  0.0533547
22.3831  0.0100261
22.4021  -0.0317657
22.4211  0.0982473
22.44  0.0586714
22.459  -0.273796
22.478  -0.330063
22.497  -0.409373
22.516  -0.477958
22.535  -0.531284
22.554  -0.348078
22.5729  -0.0146302
22.5919  0.268787
22.6109  0.15334
22.6299  0.0298969
22.6489  -0.0554556
22.6679  -0.0356551
22.6869  0.136338
22.7059  0.275276
22.7248  0.0792612
22.7438  0.131072
22.7628  0.350205
22.7818  0.514954
22.8008  0.587524
22.8198  0.489829
22.8388  0.778242
22.8577  0.73546
22.8767  0.87484
22.8957  0.647986
22.9147  0.704064
22.9337  0.508823
22.9527  0.164911
22.9717  0.0201227
22.9906  -0.160921
23.0096  0.00221051
23.0286  0.174069
23.0476  0.526887
23.0666  0.624284
23.0856  0.434623
23.1046  0.40656
23.1235  0.481576
23.1425  0.710083
23.1615  0.730223
23.1805  0.880996
23.1995  0.73372
23.2185  0.411728
23.2375  0.0858771
23.2565  -0.00318875
23.2754  -0.0148331
23.2944  0.0384849
23.3134  0.0669627
23.3324  0.105339
23.3514  0.41481
23.3704  0.34866
23.3894  0.413013
23.4083  0.409394
23.4273  0.626413
23.4463  0.68731
23.4653  0.733358
23.4843  0.460138
23.5033  0.115865
23.5223  -0.0342451
23.5412  -0.0680346
23.5602  -0.0397526
23.5792  0.105007
23.5982  0.257578
23.6172  0.457108
23.6362  0.519058
23.6552  0.408834
23.6741  0.23868
23.6931  0.128527
23.7121  0.131841
23.7311  0.169287
23.7501  0.30267
23.7691  0.198302
23.7881  0.134609
23.8071  0.144149
23.826  0.284643
23.845  0.405665
23.864  0.471576
23.883  0.322205
23.902  0.365079
23.921  0.0278748
23.94  0.12838
23.9589  0.221654
23.9779  0.41305
23.9969  0.291876
24.0159  -0.0129619
24.0349  -0.147196
24.0539  -0.0765648
24.0729  -0.0600698
24.0918  0.0663866
24.1108  0.00149262
24.1298  0.0468603
24.1488  0.107153
24.1678  0.247784
24.1868  0.0503737
24.2058  -0.212268
24.2247  -0.253612
24.2437  0.189898