File: data/processed/Run1_XRD/7_ReMoB2_33p0GPa_390psi_P1_C4_D1w_059.dat
2.82731  0.732349
2.84629  -0.509165
2.86528  -0.103976
2.88427  1.12809
2.90325  1.14243
2.92224  1.47617
2.94122  0.643085
2.96021  0.910092
2.9792  0.581137
2.99818  1.03478
3.01717  0.688994
3.03616  0.498482
3.05514  0.054704
3.07413  0.222287
3.09311  0.830743
3.1121  1.19814
3.13109  1.48044
3.15007  1.49728
3.16906  1.8033
3.18805  1.93127
3.20703  2.00467
3.22602  1.86364
3.245  2.53653
3.26399  2.97977
3.28298  3.2764
3.30196  2.91534
3.32095  2.71613
3.33993  3.22038
3.35892  4.4412
3.37791  5.99878
3.39689  8.69842
3.41588  13.7371
3.43487  20.9834
3.45385  30.1679
3.47284  36.7326
3.49182  36.7113
3.51081  31.4949
3.5298  23.4776
3.54878  15.9551
3.56777  10.1887
3.58676  6.30979
3.60574  3.66649
3.62473  2.85181
3.64371  2.01963
3.6627  2.04389
3.68169  1.34047
3.70067  1.62887
3.71966  1.54674
3.73864  1.90074
3.75763  1.37944
3.77662  1.06369
3.7956  0.867519
3.81459  0.696528
3.83358  0.602912
3.85256  1.01813
3.87155  1.08842
3.89053  1.21459
3.90952  0.832061
3.92851  0.730241
3.94749  0.767705
3.96648  0.895683
3.98547  1.10086
4.00445  0.680483
4.02344  0.340697
4.04242  0.00447604
4.06141  0.31486
4.0804  0.434306
4.09938  0.74078
4.11837  0.793702
4.13735  0.410318
4.15634  0.370073
4.17533  0.679661
4.19431  0.77751
4.2133  0.875122
4.23229  0.624238
4.25127  1.07906
4.27026  0.742388
4.28924  0.818038
4.30823  0.495999
4.32722  0.578351
4.3462  0.570033
4.36519  0.609185
4.38418  0.587434
4.40316  0.700113
4.42215  0.133367
4.44113  0.0509824
4.46012  -0.23807
4.47911  -0.172086
4.49809  0.0373634
4.51708  0.402222
4.53606  0.719851
4.55505  0.765896
4.57404  0.51649
4.59302  0.659585
4.61201  0.286861
4.631  0.141428
4.64998  -0.0934335
4.66897  0.147223
4.68795  0.359717
4.70694  0.574795
4.72593  1.10734
4.74491  1.04074
4.7639  0.618133
4.78289  0.547091
4.80187  0.652809
4.82086  1.03576
4.83984  0.843824
4.85883  0.971057
4.87782  1.02953
4.8968  0.889818
4.91579  0.650748
4.93478  0.0710243
4.95376  -0.0196437
4.97275  0.117764
4.99173  0.372202
5.01072  0.823964
5.02971  0.765032
5.04869  1.22717
5.06768  1.03516
5.08666  0.710059
5.10565  0.556921
5.12464  0.495446
5.14362  0.288459
5.16261  0.180572
5.1816  0.101582
5.20058  -0.00546958
5.21957  0.137963
5.23855  0.0644167
5.25754  0.435846
5.27653  0.800473
5.29551  1.01895
5.3145  0.790604
5.33349  0.341572
5.35247  0.253228
5.37146  0.1127
5.39044  0.0564394
5.40943  0.115915
5.42842  0.110697
5.4474  0.00762753
5.46639  0.193988
5.48537  0.785685
5.50436  1.34135
5.52335  1.36801
5.54233  1.27561
5.56132  1.3804
5.58031  0.930838
5.59929  0.763014
5.61828  0.912345
5.63726  0.955799
5.65625  0.57801
5.67524  0.0544242
5.69422  0.141233
5.71321  0.904831
5.7322  1.3972
5.75118  1.46578
5.77017  0.926092
5.78915  0.189745
5.80814  -0.0767827
5.82713  0.025225
5.84611  0.443572
5.8651  0.223838
5.88408  0.152972
5.90307  0.168641
5.92206  0.740755
5.94104  0.687917
5.96003  1.15096
5.97902  1.20744
5.998  1.23593
6.01699  0.336171
6.03597  -0.146231
6.05496  -0.195582
6.07395  0.362558
6.09293  0.361886
6.11192  0.0791441
6.13091  -0.194585
6.14989  0.266491
6.16888  0.456824
6.18786  0.395247
6.20685  0.0424255
6.22584  0.047592
6.24482  0.293772
6.26381  0.418904
6.28279  0.862853
6.30178  1.14073
6.32077  1.02536
6.33975  1.23373
6.35874  1.22279
6.37773  1.53154
6.39671  1.09052
6.4157  1.05217
6.43468  1.03606
6.45367  1.40444
6.47266  1.92746
6.49164  2.65716
6.51063  3.60861
6.52962  4.81344
6.5486  6.8562
6.56759  10.3693
6.58657  15.003
6.60556  20.5944
6.62455  24.5476
6.64353  26.3655
6.66252  25.0768
6.6815  22.1837
6.70049  18.8805
6.71948  15.7945
6.73846  13.5582
6.75745  13.1
6.77644  14.4671
6.79542  17.2801
6.81441  21.7385
6.83339  29.2671
6.85238  41.088
6.87137  61.4832
6.89035  91.4264
6.90934  130.142
6.92833  171.082
6.94731  196.254
6.9663  200.8
6.98528  186.984
7.00427  167.959
7.02326  150.948
7.04224  131.497
7.06123  108.503
7.08021  84.427
7.0992  61.9824
7.11819  42.2771
7.13717  26.9132
7.15616  16.7516
7.17515  11.2526
7.19413  7.52734
7.21312  5.51302
7.2321  4.17971
7.25109  3.69052
7.27008  2.85459
7.28906  2.0066
7.30805  1.25716
7.32704  1.51295
7.34602  1.64765
7.36501  1.36576
7.38399  0.922583
7.40298  0.655954
7.42197  0.623279
7.44095  0.742923
7.45994  0.620764
7.47892  0.0599255
7.49791  -0.0478269
7.5169  0.359531
7.53588  0.747792
7.55487  0.5996
7.57386  0.953346
7.59284  0.860797
7.61183  0.925519
7.63081  0.766315
7.6498  0.667618
7.66879  0.550575
7.68777  0.762354
7.70676  0.49376
7.72575  0.448334
7.74473  -0.0194659
7.76372  0.733583
7.7827  0.794525
7.80169  0.696484
7.82068  0.0585846
7.83966  -0.203068
7.85865  0.0308437
7.87764  0.600567
7.89662  0.990228
7.91561  1.08459
7.93459  1.08254
7.95358  1.12856
7.97257  0.987212
7.99155  0.952283
8.01054  1.00627
8.02952  1.70159
8.04851  1.67929
8.0675  1.50075
8.08648  1.17945
8.10547  1.06192
8.12446  0.743509
8.14344  0.348631
8.16243  0.278717
8.18141  0.418872
8.2004  0.395062
8.21939  0.441332
8.23837  0.227183
8.25736  0.171916
8.27635  0.321681
8.29533  0.188647
8.31432  0.0132555
8.3333  0.00720369
8.35229  0.460852
8.37128  0.929399
8.39026  1.18262
8.40925  1.19388
8.42823  1.33128
8.44722  1.41679
8.46621  1.43988
8.48519  1.36765
8.50418  1.50821
8.52317  1.49595
8.54215  1.01913
8.56114  0.545841
8.58012  0.185856
8.59911  0.697847
8.6181  0.978912
8.63708  0.822009
8.65607  0.362109
8.67506  0.381543
8.69404  0.760738
8.71303  0.737169
8.73201  0.421146
8.751  0.173773
8.76999  -0.0822437
8.78897  -0.363722
8.80796  -0.511968
8.82694  -0.131661
8.84593  -0.0284469
8.86492  0.211168
8.8839  -0.0931554
8.90289  -0.427457
8.92188  -0.540144
8.94086  -0.333471
8.95985  0.0961761
8.97883  0.841655
8.99782  1.1
9.01681  1.45157
9.03579  2.0096
9.05478  3.11476
9.07377  4.1564
9.09275  5.21746
9.11174  6.4671
9.13072  8.08452
9.14971  10.8913
9.1687  14.4288
9.18768  19.8923
9.20667  27.5471
9.22565  38.0433
9.24464  53.3303
9.26363  75.526
9.28261  109.624
9.3016  158.866
9.32059  224.437
9.33957  303.441
9.35856  388.941
9.37754  473.716
9.39653  552.659
9.41552  618.385
9.4345  666.713
9.45349  701.437
9.47248  710.32
9.49146  709.197
9.51045  686.165
9.52943  658.272
9.54842  619.913
9.56741  581.824
9.58639  542.09
9.60538  496.091
9.62436  447.417
9.64335  395.624
9.66234  326.729
9.68132  254.294
9.70031  188.356
9.7193  141.446
9.73828  104.917
9.75727  79.4096
9.77625  61.3338
9.79524  47.4147
9.81423  36.3931
9.83321  28.0286
9.8522  20.6645
9.87119  14.9833
9.89017  9.60573
9.90916  6.32334
9.92814  3.99054
9.94713  2.23421
9.96612  0.871811
9.9851  -0.337508
10.0041  -0.691049
10.0231  -0.718066
10.0421  -0.56829
10.061  -0.240373
10.08  0.343886
10.099  1.02958
10.118  1.3362
10.137  1.2733
10.156  1.14948
10.175  0.838332
10.194  1.03258
10.2129  0.969557
10.2319  0.803277
10.2509  0.858404
10.2699  0.613399
10.2889  1.13787
10.3079  0.974347
10.3269  2.57912
10.3458  5.31682
10.3648  8.97898
10.3838  17.7493
10.4028  25.717
10.4218  37.2063
10.4408  62.5263
10.4598  63.4324
10.4787  58.7425
10.4977  50.6289
10.5167  45.9547
10.5357  31.6035
10.5547  30.899
10.5737  28.6144
10.5927  28.2855
10.6116  28.6257
10.6306  29.1627
10.6496  30.0921
10.6686  31.2462
10.6876  32.9112
10.7066  34.517
10.7256  36.6087
10.7446  38.944
10.7635  41.2691
10.7825  43.7391
10.8015  47.6382
10.8205  49.3334
10.8395  52.1031
10.8585  53.7886
10.8775  56.5741
10.8964  58.436
10.9154  60.295
10.9344  60.9594
10.9534  60.7703
10.9724  60.239
10.9914  58.9484
11.0104  56.2293
11.0293  52.5434
11.0483  48.2643
11.0673  45.7273
11.0863  41.3267
11.1053  38.6423
11.1243  35.6136
11.1433  32.8048
11.1622  31.9709
11.1812  29.0424
11.2002  27.8938
11.2192  24.5912
11.2382  21.6615
11.2572  18.7983
11.2762  16.6068
11.2951  14.2651
11.3141  12.3762
11.3331  11.2198
11.3521  10.4696
11.3711  9.07327
11.3901  6.73198
11.4091  6.05121
11.4281  6.97755
11.447  7.67897
11.466  7.81104
11.485  7.22684
11.504  6.37048
11.523  5.06351
11.542  4.08783
11.561  3.2358
11.5799  1.94014
11.5989  0.93637
11.6179  0.200803
11.6369  -0.095783
11.6559  -0.0827638
11.6749  0.259748
11.6939  2.0764
11.7128  2.89872
11.7318  2.91276
11.7508  2.27996
11.7698  2.01626
11.7888  1.56135
11.8078  1.24188
11.8268  1.46407
11.8457  1.23676
11.8647  0.94393
11.8837  0.28496
11.9027  -0.0742565
11.9217  -0.303462
11.9407  -0.702892
11.9597  -1.30153
11.9787  -1.40747
11.9976  -1.22376
12.0166  -1.12372
12.0356  -0.715064
12.0546  0.257646
12.0736  1.76632
12.0926  3.19117
12.1116  5.18935
12.1305  6.42709
12.1495  8.01625
12.1685  9.45402
12.1875  10.7617
12.2065  11.3205
12.2255  11.7776
12.2445  13.713
12.2634  15.1385
12.2824  18.2774
12.3014  21.0608
12.3204  27.7616
12.3394  36.7256
12.3584  49.1896
12.3774  69.2289
12.3963  96.0872
12.4153  148.649
12.4343  192.566
12.4533  341.543
12.4723  430.859
12.4913  577.49
12.5103  633.251
12.5293  640.057
12.5482  513
12.5672  422.465
12.5862  318.938
12.6052  237.776
12.6242  204.096
12.6432  156.23
12.6622  140.963
12.6811  113.462
12.7001  104.899
12.7191  89.855
12.7381  84.1234
12.7571  77.1307
12.7761  72.1327
12.7951  71.4111
12.814  67.907
12.833  69.1348
12.852  66.602
12.871  68.8417
12.89  68.2453
12.909  69.408
12.928  69.7356
12.9469  70.1354
12.9659  70.6578
12.9849  69.1182
13.0039  69.4469
13.0229  67.0012
13.0419  66.3634
13.0609  64.3218
13.0799  63.242
13.0988  61.8255
13.1178  60.582
13.1368  59.8108
13.1558  58.4976
13.1748  59.5755
13.1938  60.077
13.2128  63.2456
13.2317  66.8709
13.2507  73.4178
13.2697  83.9396
13.2887  98.9242
13.3077  125.682
13.3267  167.728
13.3457  228.511
13.3646  296.159
13.3836  345.891
13.4026  362.427
13.4216  331.887
13.4406  274.941
13.4596  206.255
13.4786  149.02
13.4975  99.566
13.5165  65.3998
13.5355  41.1266
13.5545  25.4107
13.5735  15.0511
13.5925  8.22729
13.6115  4.25576
13.6305  1.90212
13.6494  0.906359
13.6684  0.248908
13.6874  0.0438623
13.7064  -0.215643
13.7254  0.704404
13.7444  1.47608
13.7634  2.70833
13.7823  3.97399
13.8013  4.61475
13.8203  4.98166
13.8393  6.18265
13.8583  7.21026
13.8773  7.69028
13.8963  8.62108
13.9152  8.24406
13.9342  8.87993
13.9532  8.49549
13.9722  8.69565
13.9912  7.75245
14.0102  6.81398
14.0292  6.36372
14.0481  5.89327
14.0671  5.39638
14.0861  4.4136
14.1051  3.63211
14.1241  2.43513
14.1431  1.65899
14.1621  1.16303
14.1811  1.13672
14.2  0.770811
14.219  0.342535
14.238  -0.205306
14.257  -0.910196
14.276  -1.30504
14.295  -1.02364
14.314  -0.370528
14.3329  -0.376159
14.3519  -0.35694
14.3709  -0.406533
14.3899  -0.199376
14.4089  -0.184139
14.4279  -0.102108
14.4469  -0.37888
14.4658  -0.437046
14.4848  -0.695336
14.5038  -0.464162
14.5228  -0.288695
14.5418  0.0538976
14.5608  0.169483
14.5798  -0.0355871
14.5987  -0.206649
14.6177  0.0254331
14.6367  0.174725
14.6557  0.269731
14.6747  0.377364
14.6937  0.222905
14.7127  0.527118
14.7317  0.559466
14.7506  0.605507
14.7696  0.540983
14.7886  0.614733
14.8076  0.983134
14.8266  1.04251
14.8456  0.864814
14.8646  0.79071
14.8835  0.577731
14.9025  0.430641
14.9215  0.751156
14.9405  0.883293
14.9595  0.869678
14.9785  0.58055
14.9975  0.901086
15.0164  0.763387
15.0354  0.547383
15.0544  -0.0360946
15.0734  -0.277848
15.0924  -0.0967934
15.1114  0.112913
15.1304  0.208761
15.1493  0.0971744
15.1683  -0.00460735
15.1873  0.393862
15.2063  0.396248
15.2253  0.0561153
15.2443  -0.248766
15.2633  -0.424487
15.2823  -0.257741
15.3012  0.234847
15.3202  0.260591
15.3392  0.380123
15.3582  0.573179
15.3772  1.22396
15.3962  1.79594
15.4152  1.842
15.4341  1.77839
15.4531  1.82994
15.4721  1.75523
15.4911  1.72058
15.5101  1.63571
15.5291  1.96643
15.5481  2.24944
15.567  2.77135
15.586  3.11813
15.605  3.46658
15.624  3.50877
15.643  3.71785
15.662  4.02934
15.681  4.56436
15.6999  4.58254
15.7189  5.00974
15.7379  5.68715
15.7569  6.81723
15.7759  7.6931
15.7949  8.60344
15.8139  9.67968
15.8329  10.7913
15.8518  12.2668
15.8708  14.2135
15.8898  16.2593
15.9088  18.6249
15.9278  20.9085
15.9468  23.4766
15.9658  25.7651
15.9847  27.4399
16.0037  28.5707
16.0227  29.5352
16.0417  30.4531
16.0607  30.6627
16.0797  29.8477
16.0987  27.6214
16.1176  24.8361
16.1366  21.2128
16.1556  18.5066
16.1746  16.5932
16.1936  15.3792
16.2126  14.7009
16.2316  14.3975
16.2505  13.9906
16.2695  13.6775
16.2885  12.7936
16.3075  11.87
16.3265  11.4653
16.3455  11.1771
16.3645  10.9786
16.3834  10.0827
16.4024  9.44886
16.4214  8.44139
16.4404  7.52482
16.4594  6.89151
16.4784  6.70147
16.4974  6.40837
16.5164  5.65555
16.5353  5.30474
16.5543  5.07647
16.5733  4.75254
16.5923  4.61432
16.6113  4.64762
16.6303  4.7384
16.6493  4.77829
16.6682  4.71296
16.6872  4.95645
16.7062  4.9041
16.7252  4.80631
16.7442  3.97929
16.7632  3.03334
16.7822  2.26233
16.8011  1.68655
16.8201  1.61767
16.8391  1.37269
16.8581  1.25818
16.8771  0.919574
16.8961  0.536515
16.9151  0.146031
16.934  -0.104427
16.953  -0.206217
16.972  -0.135282
16.991  -0.120503
17.01  -0.0796699
17.029  -0.154129
17.048  -0.369611
17.067  -0.446286
17.0859  -0.413873
17.1049  -0.0748172
17.1239  -0.0954326
17.1429  -0.33448
17.1619  -0.745707
17.1809  -1.02919
17.1999  -1.01519
17.2188  -0.72708
17.2378  -0.537703
17.2568  -0.447258
17.2758  -0.728133
17.2948  -0.729244
17.3138  -0.256662
17.3328  0.197715
17.3517  0.939331
17.3707  1.55327
17.3897  2.11995
17.4087  2.38213
17.4277  3.1777
17.4467  4.24058
17.4657  5.56106
17.4846  7.33121
17.5036  9.27605
17.5226  12.2835
17.5416  15.6402
17.5606  21.1948
17.5796  28.5416
17.5986  38.1966
17.6176  49.6594
17.6365  61.1977
17.6555  71.9459
17.6745  80.0482
17.6935  84.4792
17.7125  86.044
17.7315  86.3466
17.7505  87.8027
17.7694  92.3343
17.7884  98.8686
17.8074  105.703
17.8264  112.986
17.8454  118.036
17.8644  126.35
17.8834  130.221
17.9023  140.47
17.9213  150.057
17.9403  160.869
17.9593  187.956
17.9783  189.384
17.9973  215.838
18.0163  200.288
18.0352  166.562
18.0542  136.88
18.0732  104.793
18.0922  72.5538
18.1112  63.6935
18.1302  48.1538
18.1492  42.337
18.1682  33.9995
18.1871  29.3385
18.2061  24.0008
18.2251  20.1665
18.2441  18.0129
18.2631  16.8911
18.2821  16.2353
18.3011  15.3689
18.32  15.6308
18.339  15.5689
18.358  14.9145
18.377  14.5902
18.396  13.9733
18.415  13.6493
18.434  13.0338
18.4529  12.0742
18.4719  11.4917
18.4909  11.0698
18.5099  11.0838
18.5289  10.6663
18.5479  10.667
18.5669  10.6837
18.5858  11.1275
18.6048  12.2286
18.6238  13.8956
18.6428  16.6814
18.6618  19.8071
18.6808  23.6894
18.6998  27.6727
18.7188  31.9774
18.7377  36.8624
18.7567  41.7503
18.7757  47.0099
18.7947  51.5273
18.8137  55.4187
18.8327  58.6675
18.8517  61.0529
18.8706  60.6823
18.8896  58.1744
18.9086  53.9076
18.9276  49.7706
18.9466  46.6673
18.9656  44.8268
18.9846  44.8481
19.0035  47.1062
19.0225  52.4304
19.0415  59.9485
19.0605  70.1604
19.0795  80.1078
19.0985  86.1172
19.1175  84.6119
19.1364  76.5475
19.1554  63.1008
19.1744  48.649
19.1934  35.3624
19.2124  25.345
19.2314  18.0298
19.2504  13.1333
19.2694  10.0504
19.2883  8.22939
19.3073  7.3642
19.3263  7.19065
19.3453  7.67425
19.3643  9.24221
19.3833  10.8181
19.4023  12.7552
19.4212  14.9965
19.4402  17.9976
19.4592  21.0672
19.4782  23.5327
19.4972  25.5671
19.5162  26.3943
19.5352  27.0123
19.5541  26.6075
19.5731  26.4084
19.5921  25.8868
19.6111  25.6757
19.6301  25.5721
19.6491  25.295
19.6681  25.0013
19.687  24.4012
19.706  22.9218
19.725  20.1967
19.744  16.6031
19.763  12.5447
19.782  9.33252
19.801  6.93477
19.82  4.9874
19.8389  3.52595
19.8579  2.592
19.8769  1.43271
19.8959  0.83951
19.9149  0.477137
19.9339  0.396018
19.9529  0.567999
19.9718  1.0036
19.9908  1.6267
20.0098  1.89398
20.0288  2.20477
20.0478  2.63599
20.0668  2.91396
20.0858  2.89637
20.1047  2.92079
20.1237  3.40302
20.1427  3.55592
20.1617  3.63644
20.1807  3.77757
20.1997  4.71221
20.2187  5.27427
20.2376  5.44724
20.2566  5.65433
20.2756  6.22943
20.2946  6.80512
20.3136  7.2919
20.3326  7.62667
20.3516  8.20052
20.3706  8.72183
20.3895  9.28759
20.4085  9.47899
20.4275  9.8192
20.4465  10.3514
20.4655  10.9966
20.4845  11.5612
20.5035  12.2153
20.5224  12.8708
20.5414  13.1794
20.5604  13.9272
20.5794  14.489
20.5984  15.27
20.6174  15.7779
20.6364  16.6872
20.6553  17.1846
20.6743  18.0509
20.6933  18.9134
20.7123  20.301
20.7313  21.9051
20.7503  23.528
20.7693  25.3285
20.7882  26.9161
20.8072  28.97
20.8262  31.3485
20.8452  33.8924
20.8642  36.6221
20.8832  39.5589
20.9022  43.7555
20.9212  48.2398
20.9401  54.0635
20.9591  60.038
20.9781  67.394
20.9971  75.112
21.0161  84.0977
21.0351  91.9262
21.0541  94.2443
21.073  88.6842
21.092  75.0091
21.111  62.7303
21.13  50.289
21.149  39.7151
21.168  31.0946
21.187  23.8729
21.2059  17.1829
21.2249  12.2265
21.2439  7.8969
21.2629  5.35851
21.2819  3.67013
21.3009  2.30329
21.3199  1.49513
21.3388  1.27867
21.3578  1.54344
21.3768  2.16916
21.3958  3.21608
21.4148  4.56058
21.4338  6.42453
21.4528  9.26144
21.4717  12.7792
21.4907  16.5336
21.5097  20.7554
21.5287  24.5187
21.5477  27.295
21.5667  29.1756
21.5857  30.3293
21.6047  31.0175
21.6236  30.7793
21.6426  29.978
21.6616  28.5794
21.6806  27.0462
21.6996  25.4452
21.7186  23.9034
21.7376  21.9802
21.7565  20.0845
21.7755  18.0802
21.7945  15.7067
21.8135  12.521
21.8325  9.5089
21.8515  6.80158
21.8705  4.44834
21.8894  2.6149
21.9084  1.45336
21.9274  0.808907
21.9464  0.480314
21.9654  -0.0777072
21.9844  -0.554363
22.0034  -0.883745
22.0223  -0.835832
22.0413  -0.605339
22.0603  -0.510047
22.0793  -0.409143
22.0983  -0.37139
22.1173  -0.0948523
22.1363  -0.033504
22.1553  0.0504326
22.1742  0.0183404
22.1932  0.186946
22.2122  0.350943
22.2312  0.30512
22.2502  -0.0943709
22.2692  -0.0402358
22.2882  0.465934
22.3071  0.810531
22.3261  0.804768
22.3451  0.395722
22.3641  0.21822
22.3831  0.224249
22.4021  0.257295
22.4211  0.391452
22.44  0.32274
22.459  0.390232
22.478  0.163311
22.497  -0.0227672
22.516  -0.0129505
22.535  0.265098
22.554  0.425072
22.5729  0.470952
22.5919  0.484717
22.6109  0.301033
22.6299  -0.0455863
22.6489  -0.281574
22.6679  -0.147289
22.6869  0.134922
22.7059  0.103166
22.7248  -0.038097
22.7438  0.0547107
22.7628  0.216644
22.7818  0.0362881
22.8008  -0.11514
22.8198  0.081701
22.8388  0.298171
22.8577  0.224021
22.8767  0.200635
22.8957  0.232555
22.9147  0.236494
22.9337  0.0706017
22.9527  0.0850893
22.9717  0.19223
22.9906  0.336006
23.0096  0.255087
23.0286  0.0781145
23.0476  0.177676
23.0666  0.269915
23.0856  0.472018
23.1046  0.462059
23.1235  0.315823
23.1425  0.0541214
23.1615  -0.0702431
23.1805  -0.0433594
23.1995  0.121977
23.2185  0.417941
23.2375  0.568168
23.2565  0.261061
23.2754  -0.0669552
23.2944  -0.0883709
23.3134  0.10909
23.3324  0.182458
23.3514  0.125468
23.3704  0.126244
23.3894  0.0420856
23.4083  -0.0465058
23.4273  -0.104044
23.4463  -0.00436949
23.4653  0.307679
23.4843  0.578996
23.5033  0.539689
23.5223  0.388329
23.5412  0.275965
23.5602  0.351806
23.5792  0.472595
23.5982  0.53679
23.6172  0.665213
23.6362  0.668425
23.6552  0.412198
23.6741  0.350666
23.6931  0.322966
23.7121  0.412942
23.7311  0.467598
23.7501  0.601038
23.7691  0.610086
23.7881  0.523243
23.8071  0.471502
23.826  0.445657
23.845  0.306118
23.864  0.0810877
23.883  -0.2227
23.902  -0.106004
23.921  -0.0514981
23.94  0.144567
23.9589  0.397843
23.9779  0.7857
23.9969  0.751143
24.0159  0.371941
24.0349  0.0949531
24.0539  0.0798844
24.0729  0.0184111
24.0918  -0.0134753
24.1108  -0.0886874
24.1298  -0.0825852
24.1488  -0.124462
24.1678  0.063259
24.1868  0.0268374
24.2058  0.0527454
24.2247  0.0631673
24.2437  -0.0631324