File: data/processed/Run1_XRD/8_ReMoB2_38p0GPa_430psi_P1_C4_D1w_065.dat
2.82731  0.433792
2.84629  0.112182
2.86528  0.0925082
2.88427  0.0797295
2.90325  0.0856911
2.92224  0.518975
2.94122  1.10127
2.96021  1.29151
2.9792  1.15121
2.99818  0.412237
3.01717  -0.100595
3.03616  0.132032
3.05514  0.323442
3.07413  0.341054
3.09311  0.663403
3.1121  0.609842
3.13109  1.58809
3.15007  1.23046
3.16906  1.27005
3.18805  0.736911
3.20703  1.01646
3.22602  1.21932
3.245  1.26005
3.26399  1.29232
3.28298  1.57682
3.30196  1.98625
3.32095  2.27296
3.33993  2.85347
3.35892  3.22011
3.37791  3.90636
3.39689  4.94771
3.41588  6.91324
3.43487  10.5139
3.45385  14.0786
3.47284  18.9952
3.49182  22.7217
3.51081  23.4617
3.5298  20.8481
3.54878  15.2919
3.56777  10.6884
3.58676  6.60788
3.60574  3.73581
3.62473  2.52284
3.64371  1.93488
3.6627  1.69728
3.68169  2.06945
3.70067  2.28578
3.71966  1.88021
3.73864  0.91341
3.75763  0.774048
3.77662  0.826861
3.7956  0.995776
3.81459  1.05774
3.83358  0.523992
3.85256  0.542673
3.87155  0.464381
3.89053  0.788651
3.90952  0.98849
3.92851  1.06956
3.94749  0.876494
3.96648  1.15288
3.98547  0.536922
4.00445  -0.14245
4.02344  0.231407
4.04242  0.792682
4.06141  1.72765
4.0804  1.24629
4.09938  0.986787
4.11837  0.709943
4.13735  0.885313
4.15634  1.12089
4.17533  1.02827
4.19431  0.82203
4.2133  0.994731
4.23229  0.817273
4.25127  0.771265
4.27026  0.267032
4.28924  0.113849
4.30823  0.240549
4.32722  0.519501
4.3462  0.356625
4.36519  0.41301
4.38418  0.889087
4.40316  0.989089
4.42215  0.954117
4.44113  0.860699
4.46012  0.897823
4.47911  0.348
4.49809  0.0882873
4.51708  0.373123
4.53606  0.72755
4.55505  0.882601
4.57404  0.311859
4.59302  -0.183036
4.61201  -0.162813
4.631  0.469259
4.64998  0.995075
4.66897  0.901248
4.68795  0.844357
4.70694  0.909252
4.72593  0.896297
4.74491  1.22909
4.7639  1.11088
4.78289  1.60302
4.80187  1.54273
4.82086  0.660525
4.83984  0.450943
4.85883  0.628013
4.87782  1.29682
4.8968  1.7234
4.91579  1.79372
4.93478  1.50866
4.95376  1.7994
4.97275  1.90224
4.99173  1.90732
5.01072  1.92158
5.02971  1.48836
5.04869  1.26695
5.06768  1.41843
5.08666  1.86109
5.10565  1.22351
5.12464  0.849342
5.14362  0.534827
5.16261  0.36266
5.1816  0.387102
5.20058  0.119225
5.21957  0.0522111
5.23855  0.931003
5.25754  1.37395
5.27653  1.5951
5.29551  0.778568
5.3145  -0.108565
5.33349  -0.565166
5.35247  0.0901709
5.37146  0.967463
5.39044  1.75538
5.40943  1.45246
5.42842  1.28906
5.4474  1.05977
5.46639  0.899869
5.48537  1.02723
5.50436  0.977848
5.52335  1.06309
5.54233  1.28987
5.56132  1.98108
5.58031  1.38799
5.59929  0.826497
5.61828  0.360648
5.63726  0.164344
5.65625  0.626494
5.67524  0.93942
5.69422  1.65568
5.71321  1.68683
5.7322  2.29139
5.75118  2.34646
5.77017  2.24656
5.78915  1.90297
5.80814  1.80349
5.82713  1.53367
5.84611  0.742003
5.8651  0.727512
5.88408  0.421313
5.90307  0.659092
5.92206  -0.0684478
5.94104  -0.0701586
5.96003  0.180374
5.97902  0.876327
5.998  0.835464
6.01699  0.46879
6.03597  0.212364
6.05496  0.361965
6.07395  0.773638
6.09293  0.902869
6.11192  0.809751
6.13091  0.609584
6.14989  0.63602
6.16888  0.176978
6.18786  -0.229221
6.20685  -0.338486
6.22584  0.249987
6.24482  0.744295
6.26381  1.09453
6.28279  1.33598
6.30178  1.38328
6.32077  1.65558
6.33975  2.13665
6.35874  2.40575
6.37773  2.08148
6.39671  1.8099
6.4157  1.61713
6.43468  1.97762
6.45367  2.27245
6.47266  2.82913
6.49164  3.6543
6.51063  4.34855
6.52962  5.94361
6.5486  8.1292
6.56759  12.1682
6.58657  19.4483
6.60556  32.1081
6.62455  49.7047
6.64353  68.3652
6.66252  81.5578
6.6815  83.6187
6.70049  75.7782
6.71948  60.7624
6.73846  46.5059
6.75745  35.7727
6.77644  28.4883
6.79542  24.1989
6.81441  22.4595
6.83339  23.183
6.85238  26.3075
6.87137  32.3826
6.89035  41.855
6.90934  54.3818
6.92833  71.4907
6.94731  91.9252
6.9663  110.014
6.98528  123.589
7.00427  130.551
7.02326  127.188
7.04224  118.855
7.06123  102.108
7.08021  82.7248
7.0992  60.2895
7.11819  43.4093
7.13717  28.3777
7.15616  19.5428
7.17515  14.2194
7.19413  10.7768
7.21312  8.48362
7.2321  6.85988
7.25109  5.34761
7.27008  3.72838
7.28906  3.13143
7.30805  2.72724
7.32704  2.99003
7.34602  2.98296
7.36501  2.8363
7.38399  2.32338
7.40298  1.98881
7.42197  1.73439
7.44095  1.66958
7.45994  0.863335
7.47892  0.786221
7.49791  0.588183
7.5169  0.362389
7.53588  -0.182206
7.55487  0.0367689
7.57386  0.528902
7.59284  0.756212
7.61183  0.535198
7.63081  0.476022
7.6498  0.677207
7.66879  0.998971
7.68777  1.47847
7.70676  1.51604
7.72575  1.42236
7.74473  1.19779
7.76372  1.11373
7.7827  0.935639
7.80169  0.425065
7.82068  0.183782
7.83966  -0.0105893
7.85865  0.231322
7.87764  0.511083
7.89662  0.735362
7.91561  0.934133
7.93459  1.40268
7.95358  1.4364
7.97257  1.44445
7.99155  1.12474
8.01054  0.725752
8.02952  0.562423
8.04851  0.318059
8.0675  0.505004
8.08648  0.41275
8.10547  0.682176
8.12446  0.720653
8.14344  0.861004
8.16243  0.689825
8.18141  0.294009
8.2004  0.270282
8.21939  0.455102
8.23837  0.828838
8.25736  0.653255
8.27635  0.463481
8.29533  0.625113
8.31432  0.857153
8.3333  1.06448
8.35229  0.350108
8.37128  -0.187936
8.39026  -0.124122
8.40925  0.372378
8.42823  0.945592
8.44722  1.29221
8.46621  1.08587
8.48519  0.815184
8.50418  0.319366
8.52317  0.382628
8.54215  0.393129
8.56114  0.687486
8.58012  0.862628
8.59911  0.774005
8.6181  0.543909
8.63708  0.40141
8.65607  0.0791663
8.67506  0.242477
8.69404  0.0974674
8.71303  0.0656832
8.73201  -0.00243425
8.751  0.119185
8.76999  0.234878
8.78897  0.0894502
8.80796  -0.179022
8.82694  -0.150483
8.84593  0.0216283
8.86492  0.304398
8.8839  0.487874
8.90289  0.0131741
8.92188  -0.179476
8.94086  -0.487615
8.95985  0.0430161
8.97883  0.314855
8.99782  0.771891
9.01681  0.921597
9.03579  0.973511
9.05478  1.77682
9.07377  2.36211
9.09275  3.58284
9.11174  4.84649
9.13072  6.35887
9.14971  8.5424
9.1687  11.2946
9.18768  14.9936
9.20667  19.8785
9.22565  27.1676
9.24464  36.9981
9.26363  52.1061
9.28261  74.6601
9.3016  108.688
9.32059  159.513
9.33957  231.157
9.35856  322.677
9.37754  435.561
9.39653  545.608
9.41552  632.218
9.4345  713.522
9.45349  768.717
9.47248  836.577
9.49146  889.114
9.51045  926.259
9.52943  942.161
9.54842  918.719
9.56741  861.426
9.58639  784.38
9.60538  718.29
9.62436  646.816
9.64335  572.081
9.66234  490.886
9.68132  407.549
9.70031  335.187
9.7193  271.954
9.73828  217.583
9.75727  172.902
9.77625  135.737
9.79524  105.132
9.81423  80.9108
9.83321  63.2761
9.8522  49.296
9.87119  38.5334
9.89017  29.6404
9.90916  22.8403
9.92814  17.1185
9.94713  12.5038
9.96612  8.65987
9.9851  5.75407
10.0041  3.63083
10.0231  2.10841
10.0421  0.942839
10.061  0.135125
10.08  -0.131087
10.099  -0.106807
10.118  0.140877
10.137  0.246108
10.156  1.1311
10.175  1.47906
10.194  2.69694
10.2129  2.65479
10.2319  3.28587
10.2509  2.7756
10.2699  2.56274
10.2889  1.54827
10.3079  1.05602
10.3269  0.243885
10.3458  -0.191799
10.3648  -0.191652
10.3838  0.323913
10.4028  1.61272
10.4218  3.8856
10.4408  6.80243
10.4598  9.71813
10.4787  12.507
10.4977  15.0779
10.5167  16.7713
10.5357  18.6718
10.5547  20.4229
10.5737  21.6975
10.5927  23.2956
10.6116  25.4709
10.6306  27.6698
10.6496  31.0435
10.6686  34.2492
10.6876  37.2248
10.7066  40.3646
10.7256  44.826
10.7446  48.49
10.7635  52.1738
10.7825  54.324
10.8015  58.6005
10.8205  61.3546
10.8395  64.472
10.8585  67.0087
10.8775  70.1371
10.8964  71.3248
10.9154  72.9097
10.9344  73.1431
10.9534  72.9138
10.9724  72.8243
10.9914  71.9695
11.0104  69.8814
11.0293  67.4539
11.0483  63.8545
11.0673  60.244
11.0863  56.494
11.1053  52.8727
11.1243  48.8913
11.1433  45.2844
11.1622  42.8469
11.1812  39.8453
11.2002  38.1699
11.2192  35.3326
11.2382  32.6771
11.2572  29.0597
11.2762  26.2851
11.2951  22.4254
11.3141  19.1551
11.3331  15.4784
11.3521  12.8027
11.3711  10.3774
11.3901  8.44291
11.4091  6.99142
11.4281  5.52077
11.447  4.83475
11.466  5.00553
11.485  5.38164
11.504  5.83055
11.523  5.3622
11.542  4.56101
11.561  3.42371
11.5799  2.08966
11.5989  1.01119
11.6179  0.255659
11.6369  -0.669854
11.6559  -1.6156
11.6749  -2.42748
11.6939  -2.55597
11.7128  -2.44731
11.7318  -2.03167
11.7508  -1.45421
11.7698  -0.575153
11.7888  0.120132
11.8078  0.99224
11.8268  1.94404
11.8457  3.53416
11.8647  4.29814
11.8837  4.95251
11.9027  4.40278
11.9217  4.72592
11.9407  4.63679
11.9597  4.66064
11.9787  5.3623
11.9976  5.4978
12.0166  6.89691
12.0356  7.29405
12.0546  9.43132
12.0736  10.6616
12.0926  12.4172
12.1116  14.5478
12.1305  16.4797
12.1495  20.0395
12.1685  22.9365
12.1875  27.9943
12.2065  31.4061
12.2255  36.9051
12.2445  40.9214
12.2634  45.5574
12.2824  48.6545
12.3014  50.7472
12.3204  52.7881
12.3394  52.937
12.3584  54.4753
12.3774  55.5546
12.3963  60.8456
12.4153  67.1503
12.4343  80.0295
12.4533  94.7256
12.4723  119.694
12.4913  161.193
12.5103  196.029
12.5293  255.625
12.5482  290.576
12.5672  298.988
12.5862  268.396
12.6052  245.835
12.6242  212.45
12.6432  190.282
12.6622  172.32
12.6811  154.554
12.7001  141.947
12.7191  127.95
12.7381  119.745
12.7571  109.922
12.7761  105.174
12.7951  99.3326
12.814  98.0314
12.833  95.487
12.852  95.696
12.871  95.4735
12.89  96.1376
12.909  97.4162
12.928  98.5728
12.9469  99.4168
12.9659  100.828
12.9849  100.306
13.0039  100.526
13.0229  98.8616
13.0419  96.6059
13.0609  93.36
13.0799  90.8449
13.0988  86.0961
13.1178  83.1365
13.1368  78.3734
13.1558  74.1442
13.1748  70.2381
13.1938  65.609
13.2128  62.2356
13.2317  58.4896
13.2507  55.9906
13.2697  53.3434
13.2887  50.89
13.3077  49.9313
13.3267  48.9128
13.3457  49.3846
13.3646  49.3659
13.3836  50.3541
13.4026  50.5155
13.4216  49.1691
13.4406  45.7069
13.4596  39.1662
13.4786  32.0867
13.4975  24.0207
13.5165  17.4875
13.5355  11.5386
13.5545  6.92078
13.5735  3.20394
13.5925  0.736212
13.6115  -0.976583
13.6305  -1.86249
13.6494  -2.33916
13.6684  -2.25134
13.6874  -1.75978
13.7064  -1.32058
13.7254  -0.873267
13.7444  -0.180295
13.7634  0.539097
13.7823  0.741607
13.8013  1.2576
13.8203  2.3508
13.8393  4.20651
13.8583  5.58784
13.8773  6.61651
13.8963  7.96137
13.9152  9.60143
13.9342  11.2595
13.9532  11.9548
13.9722  12.6486
13.9912  12.4426
14.0102  11.6624
14.0292  10.8778
14.0481  10.0491
14.0671  9.22801
14.0861  7.65042
14.1051  6.29362
14.1241  4.94472
14.1431  4.10982
14.1621  3.43764
14.1811  2.95681
14.2  2.30087
14.219  1.55539
14.238  1.21915
14.257  0.525892
14.276  0.237713
14.295  -0.0254102
14.314  0.0957324
14.3329  -0.213602
14.3519  -0.314654
14.3709  -0.345081
14.3899  -0.102518
14.4089  -0.264321
14.4279  -0.481039
14.4469  -0.64424
14.4658  -0.59926
14.4848  -0.526464
14.5038  -0.55927
14.5228  -0.667036
14.5418  -0.594974
14.5608  -0.581282
14.5798  -0.465173
14.5987  -0.332889
14.6177  -0.384127
14.6367  -0.1815
14.6557  0.12389
14.6747  0.37056
14.6937  0.578894
14.7127  0.564213
14.7317  0.899536
14.7506  1.04648
14.7696  1.20996
14.7886  1.94411
14.8076  2.53565
14.8266  2.90369
14.8456  2.96329
14.8646  3.0519
14.8835  2.94368
14.9025  2.91387
14.9215  2.66624
14.9405  1.9657
14.9595  1.46617
14.9785  1.1792
14.9975  1.00661
15.0164  0.777445
15.0354  0.810485
15.0544  0.726967
15.0734  0.485345
15.0924  0.0977546
15.1114  -0.0361251
15.1304  -0.462094
15.1493  -0.336394
15.1683  -0.163713
15.1873  0.30544
15.2063  0.288137
15.2253  0.0254698
15.2443  -0.173063
15.2633  -0.277684
15.2823  -0.435657
15.3012  0.254476
15.3202  0.35269
15.3392  0.676727
15.3582  0.789302
15.3772  0.669668
15.3962  0.57089
15.4152  0.531192
15.4341  1.16873
15.4531  1.53867
15.4721  1.47103
15.4911  1.2007
15.5101  1.20649
15.5291  1.80304
15.5481  2.09418
15.567  2.33703
15.586  2.42962
15.605  2.64953
15.624  2.55976
15.643  2.49201
15.662  2.8923
15.681  3.29163
15.6999  3.72168
15.7189  3.74958
15.7379  3.74708
15.7569  3.84219
15.7759  4.54178
15.7949  4.92976
15.8139  4.91022
15.8329  4.83432
15.8518  5.07939
15.8708  5.46088
15.8898  5.72139
15.9088  6.29775
15.9278  6.77954
15.9468  7.33831
15.9658  8.32337
15.9847  9.6899
16.0037  11.2672
16.0227  12.7394
16.0417  14.2632
16.0607  16.0319
16.0797  17.8961
16.0987  20.3957
16.1176  22.6891
16.1366  24.2213
16.1556  24.6767
16.1746  24.5814
16.1936  23.7795
16.2126  22.2896
16.2316  20.2981
16.2505  18.5235
16.2695  16.8244
16.2885  15.704
16.3075  14.7413
16.3265  13.792
16.3455  12.8894
16.3645  11.8986
16.3834  10.9096
16.4024  10.1341
16.4214  9.30487
16.4404  8.74755
16.4594  8.21065
16.4784  8.11217
16.4974  7.49646
16.5164  6.81289
16.5353  6.27757
16.5543  6.29071
16.5733  6.13393
16.5923  6.05251
16.6113  6.01722
16.6303  5.78925
16.6493  6.30472
16.6682  6.25378
16.6872  6.09929
16.7062  5.9133
16.7252  5.77642
16.7442  5.49813
16.7632  5.09097
16.7822  4.67691
16.8011  4.00044
16.8201  3.09397
16.8391  2.6931
16.8581  2.21856
16.8771  1.77702
16.8961  1.08956
16.9151  0.97224
16.934  0.768724
16.953  0.535571
16.972  0.20304
16.991  -0.0169027
17.01  -0.156813
17.029  -0.390418
17.048  -0.374103
17.067  -0.495269
17.0859  -0.284053
17.1049  -0.0979427
17.1239  -0.0168768
17.1429  -0.0397409
17.1619  0.0310482
17.1809  0.325963
17.1999  -0.0624598
17.2188  -0.402265
17.2378  -0.955518
17.2568  -0.696538
17.2758  -0.798129
17.2948  -0.503401
17.3138  -0.417386
17.3328  -0.177429
17.3517  -0.18255
17.3707  -0.236352
17.3897  -0.00127129
17.4087  0.0379323
17.4277  0.559984
17.4467  0.584077
17.4657  1.5557
17.4846  2.37288
17.5036  3.46078
17.5226  4.48101
17.5416  5.13904
17.5606  5.74279
17.5796  6.27129
17.5986  7.99008
17.6176  10.3035
17.6365  12.8203
17.6555  16.3501
17.6745  20.7962
17.6935  26.9004
17.7125  33.8197
17.7315  42.1819
17.7505  52.4359
17.7694  66.2468
17.7884  84.1233
17.8074  105.685
17.8264  128.002
17.8454  151.766
17.8644  175.672
17.8834  199.592
17.9023  221.158
17.9213  235.755
17.9403  242.452
17.9593  238.789
17.9783  231.024
17.9973  222.016
18.0163  210.745
18.0352  201.006
18.0542  186.04
18.0732  168.212
18.0922  146.396
18.1112  122.43
18.1302  99.5064
18.1492  80.5037
18.1682  63.5699
18.1871  52.9844
18.2061  43.3873
18.2251  36.3404
18.2441  30.9699
18.2631  27.8087
18.2821  25.0657
18.3011  22.1911
18.32  19.8882
18.339  17.4783
18.358  15.9441
18.377  14.7457
18.396  14.145
18.415  13.2982
18.434  12.8109
18.4529  12.9845
18.4719  12.8519
18.4909  13.2971
18.5099  13.5305
18.5289  14.8213
18.5479  15.8967
18.5669  17.3819
18.5858  18.6789
18.6048  20.3283
18.6238  22.2926
18.6428  24.327
18.6618  26.8345
18.6808  29.3022
18.6998  31.4111
18.7188  32.4716
18.7377  34.8165
18.7567  36.1179
18.7757  38.9142
18.7947  40.6065
18.8137  43.5654
18.8327  46.163
18.8517  48.6936
18.8706  50.3603
18.8896  51.7245
18.9086  52.0274
18.9276  51.4008
18.9466  49.8115
18.9656  47.6323
18.9846  45.4494
19.0035  43.1688
19.0225  41.2182
19.0415  39.6655
19.0605  39.2668
19.0795  39.615
19.0985  40.9942
19.1175  43.2079
19.1364  45.5843
19.1554  47.1549
19.1744  46.9699
19.1934  45.8587
19.2124  43.1273
19.2314  39.2563
19.2504  33.272
19.2694  27.3226
19.2883  20.9037
19.3073  15.3882
19.3263  10.3992
19.3453  6.22852
19.3643  3.90075
19.3833  2.67028
19.4023  2.61478
19.4212  3.20417
19.4402  4.58051
19.4592  6.3532
19.4782  8.40723
19.4972  10.5611
19.5162  13.2075
19.5352  16.2471
19.5541  18.0835
19.5731  20.3044
19.5921  21.4055
19.6111  22.6573
19.6301  22.8651
19.6491  22.7537
19.6681  21.8336
19.687  21.0118
19.706  19.7448
19.725  18.419
19.744  16.9248
19.763  15.5676
19.782  14.2593
19.801  12.5561
19.82  10.9038
19.8389  9.02178
19.8579  8.26013
19.8769  6.85577
19.8959  6.21156
19.9149  4.88919
19.9339  3.91663
19.9529  3.03938
19.9718  2.87088
19.9908  2.4463
20.0098  1.9734
20.0288  1.87066
20.0478  1.94721
20.0668  2.48068
20.0858  2.09095
20.1047  2.49817
20.1237  2.53782
20.1427  2.83143
20.1617  2.66595
20.1807  3.13599
20.1997  3.32088
20.2187  3.54143
20.2376  3.8695
20.2566  4.37641
20.2756  5.12748
20.2946  5.66186
20.3136  6.9579
20.3326  7.82526
20.3516  8.41398
20.3706  8.64218
20.3895  9.17476
20.4085  9.92914
20.4275  10.4063
20.4465  10.8328
20.4655  11.5
20.4845  11.6531
20.5035  11.8672
20.5224  11.8824
20.5414  12.6202
20.5604  13.2982
20.5794  13.6445
20.5984  14.4141
20.6174  15.1361
20.6364  16.1977
20.6553  17.2675
20.6743  18.0862
20.6933  19.1841
20.7123  19.8756
20.7313  20.5451
20.7503  21.6942
20.7693  22.7884
20.7882  23.694
20.8072  24.7695
20.8262  25.7108
20.8452  27.1449
20.8642  27.7144
20.8832  28.4785
20.9022  29.292
20.9212  30.0302
20.9401  30.2458
20.9591  30.4842
20.9781  30.6355
20.9971  30.871
21.0161  30.6057
21.0351  30.6087
21.0541  30.2002
21.073  29.6628
21.092  28.7523
21.111  27.5464
21.13  25.757
21.149  22.9074
21.168  19.6011
21.187  16.3266
21.2059  13.2184
21.2249  10.6826
21.2439  8.48134
21.2629  6.50734
21.2819  4.96086
21.3009  3.28658
21.3199  2.246
21.3388  1.05764
21.3578  0.262956
21.3768  -0.254173
21.3958  -0.0989396
21.4148  -0.131478
21.4338  -0.283914
21.4528  -0.4234
21.4717  0.13543
21.4907  1.51575
21.5097  3.3803
21.5287  5.9939
21.5477  9.96918
21.5667  15.7085
21.5857  22.7992
21.6047  30.3912
21.6236  37.5749
21.6426  44.1994
21.6616  50.1588
21.6806  56.7417
21.6996  63.8994
21.7186  70.4401
21.7376  73.6122
21.7565  71.9347
21.7755  65.7993
21.7945  56.7251
21.8135  46.6194
21.8325  37.2385
21.8515  29.3931
21.8705  23.4497
21.8894  19.2411
21.9084  16.5866
21.9274  14.9111
21.9464  13.739
21.9654  12.6401
21.9844  11.3376
22.0034  10.0249
22.0223  8.50466
22.0413  6.62945
22.0603  4.89401
22.0793  2.91617
22.0983  1.5707
22.1173  0.429273
22.1363  -0.00154072
22.1553  -0.540812
22.1742  -0.709776
22.1932  -0.612691
22.2122  -0.500841
22.2312  -0.503232
22.2502  -0.363315
22.2692  -0.358241
22.2882  0.0172508
22.3071  0.143821
22.3261  0.193796
22.3451  -0.0225982
22.3641  -0.109447
22.3831  0.201179
22.4021  0.40543
22.4211  0.384657
22.44  0.172531
22.459  0.345
22.478  0.36392
22.497  0.293801
22.516  0.19391
22.535  0.189243
22.554  0.373487
22.5729  0.517754
22.5919  0.375246
22.6109  0.518617
22.6299  0.521905
22.6489  0.595126
22.6679  0.497135
22.6869  0.320853
22.7059  0.302296
22.7248  0.319395
22.7438  0.275846
22.7628  0.107866
22.7818  -0.047687
22.8008  -0.0791804
22.8198  -0.112257
22.8388  0.0115354
22.8577  0.104378
22.8767  0.0205254
22.8957  -0.110951
22.9147  0.0452035
22.9337  0.221112
22.9527  0.0996669
22.9717  0.0129075
22.9906  -0.0732415
23.0096  -0.0101736
23.0286  0.0410723
23.0476  0.227729
23.0666  0.344281
23.0856  0.40296
23.1046  0.401567
23.1235  0.353217
23.1425  0.322831
23.1615  0.151428
23.1805  0.272138
23.1995  0.18625
23.2185  0.0897249
23.2375  0.0986389
23.2565  0.285344
23.2754  0.342675
23.2944  0.275049
23.3134  0.212273
23.3324  0.0381103
23.3514  -0.0178269
23.3704  -0.187772
23.3894  -0.263852
23.4083  -0.175926
23.4273  -0.112866
23.4463  0.304088
23.4653  0.341944
23.4843  0.469708
23.5033  0.3025
23.5223  0.426891
23.5412  0.36563
23.5602  0.575663
23.5792  0.818196
23.5982  0.865101
23.6172  0.597683
23.6362  0.360442
23.6552  0.118604
23.6741  0.0734106
23.6931  -0.0425086
23.7121  -0.01714
23.7311  0.00259754
23.7501  0.12787
23.7691  0.299079
23.7881  0.461425
23.8071  0.399627
23.826  0.392045
23.845  0.197292
23.864  0.230055
23.883  -0.106208
23.902  -0.0651234
23.921  0.0551322
23.94  0.273918
23.9589  0.119052
23.9779  -0.184443
23.9969  -0.0301897
24.0159  0.0949855
24.0349  0.246358
24.0539  0.249893
24.0729  0.164669
24.0918  0.133589
24.1108  -0.178427
24.1298  -0.214493
24.1488  -0.232546
24.1678  -0.0642427
24.1868  -0.0446068
24.2058  0.229963
24.2247  0.223283
24.2437  -0.186892