File: data/processed/Run1_XRD/9_ReMoB2_45p0GPa_470psi_P1_C4_D1w_071.dat
2.82731  0.627056
2.84629  0.050203
2.86528  -0.367966
2.88427  0.103089
2.90325  0.743882
2.92224  1.28732
2.94122  1.44423
2.96021  1.2017
2.9792  1.39969
2.99818  0.753313
3.01717  0.170937
3.03616  -0.340157
3.05514  -0.0347317
3.07413  1.14015
3.09311  2.48335
3.1121  3.01498
3.13109  2.78431
3.15007  1.8245
3.16906  1.17802
3.18805  0.81267
3.20703  0.923851
3.22602  1.29049
3.245  1.73816
3.26399  2.23658
3.28298  2.57312
3.30196  2.76019
3.32095  3.12623
3.33993  3.12569
3.35892  4.26974
3.37791  5.81433
3.39689  7.15313
3.41588  9.21565
3.43487  12.705
3.45385  17.8727
3.47284  24.5712
3.49182  29.8487
3.51081  30.7484
3.5298  26.7568
3.54878  19.555
3.56777  12.4163
3.58676  7.56088
3.60574  4.55978
3.62473  3.76068
3.64371  3.18426
3.6627  2.77866
3.68169  2.43567
3.70067  2.24134
3.71966  1.5998
3.73864  1.35225
3.75763  1.0295
3.77662  1.04503
3.7956  1.15391
3.81459  1.04877
3.83358  0.593851
3.85256  0.441282
3.87155  0.484466
3.89053  0.0249396
3.90952  0.285838
3.92851  0.876275
3.94749  1.02631
3.96648  0.797105
3.98547  0.557952
4.00445  0.490506
4.02344  0.638253
4.04242  0.35321
4.06141  0.248456
4.0804  0.709358
4.09938  0.567609
4.11837  0.632267
4.13735  0.526685
4.15634  0.958331
4.17533  1.18036
4.19431  0.833513
4.2133  0.718176
4.23229  0.243122
4.25127  0.560483
4.27026  0.577061
4.28924  0.460882
4.30823  0.113657
4.32722  -0.037557
4.3462  0.354736
4.36519  0.165152
4.38418  0.133874
4.40316  0.165029
4.42215  -0.0967941
4.44113  0.316537
4.46012  0.766445
4.47911  0.570819
4.49809  0.121703
4.51708  -0.099419
4.53606  0.00108484
4.55505  0.396292
4.57404  0.384625
4.59302  0.420994
4.61201  0.522353
4.631  0.55688
4.64998  0.293103
4.66897  -0.0588743
4.68795  0.210785
4.70694  0.27641
4.72593  0.330575
4.74491  0.340506
4.7639  0.428661
4.78289  0.462421
4.80187  0.708035
4.82086  0.62445
4.83984  1.01706
4.85883  0.819559
4.87782  0.732646
4.8968  0.594465
4.91579  0.615974
4.93478  0.435548
4.95376  0.236727
4.97275  0.293907
4.99173  0.932921
5.01072  0.922783
5.02971  0.831657
5.04869  -0.0074272
5.06768  0.0509884
5.08666  0.437964
5.10565  0.899666
5.12464  0.95459
5.14362  0.861804
5.16261  0.29061
5.1816  0.04785
5.20058  0.214836
5.21957  -0.172868
5.23855  0.319743
5.25754  0.515612
5.27653  0.912122
5.29551  0.708213
5.3145  0.642383
5.33349  0.828939
5.35247  0.792406
5.37146  0.610966
5.39044  0.502709
5.40943  0.87326
5.42842  1.35994
5.4474  1.18752
5.46639  1.04175
5.48537  0.739884
5.50436  0.50367
5.52335  -0.000848032
5.54233  -0.153846
5.56132  -0.0418585
5.58031  0.70725
5.59929  1.49903
5.61828  1.842
5.63726  1.7941
5.65625  1.65031
5.67524  1.40576
5.69422  1.61018
5.71321  1.22867
5.7322  1.64119
5.75118  1.63257
5.77017  1.55358
5.78915  1.50198
5.80814  1.21488
5.82713  0.556657
5.84611  0.150672
5.8651  -0.100338
5.88408  0.723317
5.90307  1.15559
5.92206  1.17569
5.94104  0.660693
5.96003  0.562781
5.97902  0.140901
5.998  -0.146362
6.01699  -0.40698
6.03597  -0.017859
6.05496  -0.135738
6.07395  0.101118
6.09293  -0.226277
6.11192  -0.0779597
6.13091  0.28686
6.14989  0.425496
6.16888  0.634846
6.18786  0.160748
6.20685  0.0683859
6.22584  0.0736333
6.24482  0.132552
6.26381  0.0679178
6.28279  0.533654
6.30178  1.10164
6.32077  1.63461
6.33975  1.5112
6.35874  1.3094
6.37773  2.04416
6.39671  2.88976
6.4157  3.3284
6.43468  3.28096
6.45367  3.29129
6.47266  3.36213
6.49164  4.3248
6.51063  4.99271
6.52962  5.35609
6.5486  5.49977
6.56759  6.19079
6.58657  7.8961
6.60556  10.4636
6.62455  15.1688
6.64353  21.7338
6.66252  28.9441
6.6815  35.9093
6.70049  42.1591
6.71948  45.8569
6.73846  45.9468
6.75745  43.4322
6.77644  39.9279
6.79542  36.3513
6.81441  34.4451
6.83339  34.2243
6.85238  35.4834
6.87137  39.2104
6.89035  46.4595
6.90934  59.4344
6.92833  80.9644
6.94731  113.858
6.9663  153.418
6.98528  188.8
7.00427  208.717
7.02326  208.247
7.04224  188.794
7.06123  161.08
7.08021  130.227
7.0992  100.484
7.11819  74.2243
7.13717  53.0213
7.15616  38.7239
7.17515  28.6972
7.19413  21.2839
7.21312  16.7305
7.2321  13.1889
7.25109  10.1015
7.27008  7.81108
7.28906  6.4384
7.30805  5.38569
7.32704  4.38564
7.34602  3.6104
7.36501  2.79686
7.38399  2.37542
7.40298  2.06771
7.42197  1.82417
7.44095  1.69061
7.45994  1.79609
7.47892  1.7125
7.49791  1.22255
7.5169  0.745681
7.53588  0.389255
7.55487  0.477723
7.57386  0.508241
7.59284  0.400174
7.61183  0.332188
7.63081  0.5899
7.6498  0.273404
7.66879  0.64655
7.68777  0.558057
7.70676  0.175758
7.72575  -0.125912
7.74473  -0.0661378
7.76372  0.271051
7.7827  0.745446
7.80169  0.824432
7.82068  1.15197
7.83966  1.00424
7.85865  0.811484
7.87764  0.395302
7.89662  0.366943
7.91561  0.385386
7.93459  0.357645
7.95358  0.343724
7.97257  0.059902
7.99155  0.0932955
8.01054  -0.0012506
8.02952  0.317053
8.04851  0.604906
8.0675  0.556176
8.08648  0.634192
8.10547  0.402872
8.12446  0.0145615
8.14344  0.0147764
8.16243  -0.497668
8.18141  -0.109597
8.2004  0.60324
8.21939  1.55898
8.23837  1.43228
8.25736  0.691717
8.27635  0.773722
8.29533  0.994957
8.31432  0.908569
8.3333  0.537758
8.35229  0.388652
8.37128  0.242231
8.39026  0.0474678
8.40925  0.0353806
8.42823  0.359901
8.44722  0.770623
8.46621  1.16313
8.48519  1.15554
8.50418  1.02521
8.52317  0.601889
8.54215  0.394448
8.56114  0.568006
8.58012  0.636185
8.59911  0.60668
8.6181  0.717437
8.63708  0.407378
8.65607  0.194623
8.67506  0.0488073
8.69404  0.12563
8.71303  0.0996629
8.73201  0.152045
8.751  -0.0213127
8.76999  -0.116533
8.78897  -0.174733
8.80796  0.0171614
8.82694  -0.0994001
8.84593  -0.56779
8.86492  -0.763446
8.8839  -0.483699
8.90289  -0.128226
8.92188  0.337648
8.94086  0.56718
8.95985  0.337964
8.97883  0.106017
8.99782  0.249047
9.01681  0.778948
9.03579  1.22579
9.05478  1.88119
9.07377  2.87846
9.09275  4.78047
9.11174  7.29961
9.13072  10.4051
9.14971  14.0272
9.1687  18.2033
9.18768  23.3362
9.20667  29.4492
9.22565  37.479
9.24464  46.4029
9.26363  58.453
9.28261  73.2483
9.3016  92.5158
9.32059  118.693
9.33957  154.088
9.35856  203.064
9.37754  271.008
9.39653  361.229
9.41552  466.937
9.4345  590.574
9.45349  709.566
9.47248  837.892
9.49146  952.703
9.51045  1045.91
9.52943  1099.9
9.54842  1111.49
9.56741  1087.21
9.58639  1011.3
9.60538  906.483
9.62436  793.125
9.64335  700.297
9.66234  616.099
9.68132  537.996
9.70031  455.731
9.7193  378.847
9.73828  313.707
9.75727  258.471
9.77625  212.086
9.79524  172.57
9.81423  138.593
9.83321  111.042
9.8522  88.0238
9.87119  69.2283
9.89017  53.8354
9.90916  41.4949
9.92814  30.911
9.94713  23.4058
9.96612  17.8255
9.9851  13.2068
10.0041  9.17492
10.0231  5.88035
10.0421  3.78401
10.061  2.48613
10.08  1.74612
10.099  1.02112
10.118  0.190613
10.137  -0.0290166
10.156  0.0807677
10.175  -0.0256435
10.194  0.0487721
10.2129  0.112421
10.2319  0.425211
10.2509  0.266533
10.2699  0.0257901
10.2889  -0.0832149
10.3079  -0.333374
10.3269  -0.877755
10.3458  -1.08162
10.3648  -1.24688
10.3838  -1.29337
10.4028  -0.748419
10.4218  -0.0325085
10.4408  1.60297
10.4598  4.33945
10.4787  8.05938
10.4977  11.9759
10.5167  15.3948
10.5357  17.9393
10.5547  20.4314
10.5737  22.0304
10.5927  22.9954
10.6116  23.2394
10.6306  23.7228
10.6496  24.26
10.6686  24.956
10.6876  25.7658
10.7066  27.0158
10.7256  28.3797
10.7446  30.2399
10.7635  32.0917
10.7825  33.6776
10.8015  35.8476
10.8205  37.5684
10.8395  39.7504
10.8585  41.9848
10.8775  44.7206
10.8964  46.6404
10.9154  48.9953
10.9344  51.3971
10.9534  54.4363
10.9724  56.8466
10.9914  58.8227
11.0104  61.5327
11.0293  63.4723
11.0483  65.0189
11.0673  66.0428
11.0863  65.9777
11.1053  65.4344
11.1243  63.1495
11.1433  60.649
11.1622  59.1842
11.1812  58.376
11.2002  59.87
11.2192  60.5015
11.2382  62.8034
11.2572  65.3259
11.2762  66.8584
11.2951  67.0502
11.3141  63.9834
11.3331  58.0708
11.3521  50.8951
11.3711  44.2758
11.3901  35.8321
11.4091  30.2764
11.4281  24.101
11.447  20.0878
11.466  16.02
11.485  12.6461
11.504  9.54782
11.523  7.24263
11.542  6.04574
11.561  5.55314
11.5799  5.26136
11.5989  4.33351
11.6179  3.11284
11.6369  1.62158
11.6559  0.698068
11.6749  0.132125
11.6939  -0.779751
11.7128  -1.20766
11.7318  -1.49218
11.7508  -0.0274702
11.7698  2.52669
11.7888  5.64737
11.8078  9.40841
11.8268  12.0466
11.8457  14.1177
11.8647  14.4927
11.8837  15.6611
11.9027  15.5737
11.9217  15.9033
11.9407  15.266
11.9597  14.7486
11.9787  14.619
11.9976  13.9759
12.0166  14.2467
12.0356  13.36
12.0546  13.7558
12.0736  13.315
12.0926  13.8405
12.1116  13.5079
12.1305  14.0549
12.1495  14.2925
12.1685  14.3916
12.1875  14.5921
12.2065  14.5007
12.2255  15.5102
12.2445  15.722
12.2634  16.9393
12.2824  17.6537
12.3014  19.459
12.3204  21.346
12.3394  23.9174
12.3584  25.9878
12.3774  28.4366
12.3963  31.2737
12.4153  34.4191
12.4343  39.0553
12.4533  43.116
12.4723  50.3353
12.4913  55.6245
12.5103  66.7537
12.5293  76.8822
12.5482  87.911
12.5672  99.5854
12.5862  108.901
12.6052  112.679
12.6242  116.464
12.6432  116.99
12.6622  111.332
12.6811  106.855
12.7001  97.7627
12.7191  90.3978
12.7381  82.4739
12.7571  76.1432
12.7761  71.451
12.7951  67.6974
12.814  65.1959
12.833  63.5848
12.852  62.8252
12.871  62.88
12.89  62.3998
12.909  62.5381
12.928  61.8807
12.9469  61.5303
12.9659  60.83
12.9849  60.2736
13.0039  59.9077
13.0229  59.8181
13.0419  59.5196
13.0609  58.582
13.0799  57.0298
13.0988  55.859
13.1178  55.0057
13.1368  54.7567
13.1558  53.2319
13.1748  51.2521
13.1938  49.1274
13.2128  47.4146
13.2317  45.3881
13.2507  43.121
13.2697  41.4806
13.2887  39.4413
13.3077  37.7151
13.3267  36.2163
13.3457  35.2278
13.3646  34.1816
13.3836  33.7846
13.4026  33.8838
13.4216  34.756
13.4406  36.0044
13.4596  38.1407
13.4786  39.2984
13.4975  39.7499
13.5165  37.4909
13.5355  33.8318
13.5545  27.7097
13.5735  21.5848
13.5925  15.4526
13.6115  10.5603
13.6305  6.21237
13.6494  2.81696
13.6684  0.334814
13.6874  -1.04789
13.7064  -1.77733
13.7254  -1.75461
13.7444  -1.41073
13.7634  -0.720272
13.7823  -0.825031
13.8013  -0.70748
13.8203  -0.159418
13.8393  0.864464
13.8583  2.04303
13.8773  3.15667
13.8963  4.33597
13.9152  5.95169
13.9342  8.15797
13.9532  10.3719
13.9722  13.3719
13.9912  16.0464
14.0102  18.6775
14.0292  19.7789
14.0481  19.812
14.0671  19.0566
14.0861  17.5838
14.1051  15.9684
14.1241  13.5053
14.1431  11.0126
14.1621  8.61169
14.1811  6.47152
14.2  4.6714
14.219  3.80407
14.238  3.07419
14.257  2.50145
14.276  1.52187
14.295  0.984974
14.314  0.89978
14.3329  0.652203
14.3519  0.724689
14.3709  0.166392
14.3899  0.0878982
14.4089  -0.10487
14.4279  -0.0576725
14.4469  0.00885765
14.4658  -0.161647
14.4848  -0.0267235
14.5038  -0.246939
14.5228  -0.399378
14.5418  -0.324486
14.5608  -0.323415
14.5798  -0.248886
14.5987  -0.175828
14.6177  0.0474262
14.6367  0.173443
14.6557  0.0207103
14.6747  -0.284475
14.6937  -0.418606
14.7127  -0.171665
14.7317  -0.0604164
14.7506  -0.141628
14.7696  -0.121412
14.7886  0.240491
14.8076  0.319205
14.8266  0.18177
14.8456  0.51952
14.8646  0.850909
14.8835  0.984349
14.9025  1.24269
14.9215  1.40718
14.9405  1.293
14.9595  1.03278
14.9785  0.883909
14.9975  1.12016
15.0164  0.808025
15.0354  0.913035
15.0544  0.88102
15.0734  0.998511
15.0924  0.520474
15.1114  0.0370867
15.1304  -0.412572
15.1493  -0.578312
15.1683  -0.461267
15.1873  -0.202336
15.2063  -0.316437
15.2253  -0.251957
15.2443  -0.383257
15.2633  0.00652198
15.2823  -0.0141013
15.3012  0.00809879
15.3202  -0.226959
15.3392  -0.218737
15.3582  -0.0122136
15.3772  0.0112137
15.3962  0.20094
15.4152  0.103796
15.4341  0.318668
15.4531  0.736542
15.4721  0.969342
15.4911  1.04606
15.5101  0.932523
15.5291  1.02799
15.5481  1.3288
15.567  1.74088
15.586  2.15994
15.605  2.27762
15.624  6.47172
15.643  8.81178
15.662  10.226
15.681  10.9578
15.6999  11.6255
15.7189  11.1614
15.7379  9.87436
15.7569  5.47053
15.7759  5.98162
15.7949  6.06616
15.8139  6.56633
15.8329  7.23278
15.8518  7.55973
15.8708  8.13088
15.8898  8.53472
15.9088  9.27381
15.9278  9.49625
15.9468  9.93238
15.9658  10.1684
15.9847  10.4973
16.0037  10.8398
16.0227  11.7543
16.0417  13.3877
16.0607  14.1774
16.0797  15.0539
16.0987  16.3031
16.1176  18.5207
16.1366  20.6944
16.1556  22.7342
16.1746  25.0773
16.1936  27.2623
16.2126  29.6453
16.2316  31.1327
16.2505  31.8536
16.2695  31.8238
16.2885  30.591
16.3075  28.581
16.3265  25.9503
16.3455  23.5764
16.3645  21.6145
16.3834  19.6743
16.4024  17.4636
16.4214  15.3889
16.4404  14.0952
16.4594  13.167
16.4784  12.6377
16.4974  11.5925
16.5164  10.8185
16.5353  10.2253
16.5543  9.79893
16.5733  9.49386
16.5923  9.21881
16.6113  9.01594
16.6303  8.87553
16.6493  8.68144
16.6682  8.33582
16.6872  8.37721
16.7062  8.123
16.7252  7.88863
16.7442  7.60746
16.7632  7.72084
16.7822  7.24913
16.8011  7.00945
16.8201  6.52433
16.8391  6.11785
16.8581  5.4932
16.8771  4.96223
16.8961  4.28941
16.9151  3.65986
16.934  3.32045
16.953  2.70982
16.972  2.36663
16.991  1.41225
17.01  0.942765
17.029  0.473645
17.048  0.653624
17.067  0.252659
17.0859  -0.0566579
17.1049  -0.158837
17.1239  -0.0735168
17.1429  0.0664436
17.1619  -0.0774229
17.1809  0.0242787
17.1999  -0.202293
17.2188  -0.356548
17.2378  -0.449772
17.2568  -0.110067
17.2758  -0.41551
17.2948  -0.84319
17.3138  -1.00691
17.3328  -0.942212
17.3517  -0.714454
17.3707  -0.295662
17.3897  0.319301
17.4087  0.724408
17.4277  1.31081
17.4467  2.28667
17.4657  3.61988
17.4846  4.59992
17.5036  5.48726
17.5226  6.59438
17.5416  7.69397
17.5606  8.21307
17.5796  8.4195
17.5986  8.70409
17.6176  9.6256
17.6365  10.5598
17.6555  11.7646
17.6745  12.9747
17.6935  14.8105
17.7125  16.6294
17.7315  18.2701
17.7505  20.2748
17.7694  22.9883
17.7884  26.494
17.8074  31.4603
17.8264  37.4018
17.8454  45.3053
17.8644  55.5572
17.8834  68.4911
17.9023  83.2988
17.9213  98.1027
17.9403  112.141
17.9593  122.598
17.9783  129.786
17.9973  131.695
18.0163  129.938
18.0352  125.073
18.0542  119.099
18.0732  112.432
18.0922  105.176
18.1112  97.917
18.1302  89.8581
18.1492  81.8892
18.1682  72.4672
18.1871  62.6204
18.2061  52.5662
18.2251  43.6011
18.2441  36.3385
18.2631  30.4549
18.2821  25.6829
18.3011  21.218
18.32  17.9653
18.339  15.4244
18.358  13.7522
18.377  12.1673
18.396  11.1521
18.415  10.6344
18.434  9.6422
18.4529  8.9995
18.4719  8.11103
18.4909  7.70945
18.5099  7.4596
18.5289  7.81141
18.5479  7.98533
18.5669  8.22143
18.5858  8.61041
18.6048  8.96566
18.6238  9.87064
18.6428  11.12
18.6618  12.481
18.6808  13.6903
18.6998  15.7709
18.7188  17.787
18.7377  19.7674
18.7567  22.1183
18.7757  24.9683
18.7947  27.6343
18.8137  30.3967
18.8327  33.2113
18.8517  35.8639
18.8706  38.3115
18.8896  40.3902
18.9086  41.5828
18.9276  42.3689
18.9466  43.1351
18.9656  43.4298
18.9846  43.1721
19.0035  41.8379
19.0225  40.1423
19.0415  37.4896
19.0605  34.5433
19.0795  31.5312
19.0985  28.7059
19.1175  25.4443
19.1364  22.1243
19.1554  19.1638
19.1744  16.6605
19.1934  14.5731
19.2124  12.2354
19.2314  10.1049
19.2504  7.91204
19.2694  5.98219
19.2883  4.38035
19.3073  3.09581
19.3263  1.94153
19.3453  1.19473
19.3643  0.749534
19.3833  0.376563
19.4023  0.384445
19.4212  0.528073
19.4402  1.44049
19.4592  2.71742
19.4782  4.26436
19.4972  6.35051
19.5162  8.64613
19.5352  11.2414
19.5541  13.9409
19.5731  17.5489
19.5921  21.8663
19.6111  26.3851
19.6301  30.9202
19.6491  34.8995
19.6681  39.2923
19.687  42.957
19.706  46.8841
19.725  49.931
19.744  54.4495
19.763  56.0608
19.782  58.3247
19.801  57.9184
19.82  56.9723
19.8389  54.2509
19.8579  51.8013
19.8769  47.5919
19.8959  44.0635
19.9149  39.3802
19.9339  35.3938
19.9529  30.2073
19.9718  26.4577
19.9908  23.2655
20.0098  20.1484
20.0288  17.9492
20.0478  15.9171
20.0668  14.6441
20.0858  13.1087
20.1047  12.5124
20.1237  11.359
20.1427  11.5924
20.1617  11.3043
20.1807  11.5566
20.1997  11.2796
20.2187  11.2761
20.2376  11.1872
20.2566  11.2729
20.2756  11.7945
20.2946  12.007
20.3136  12.1658
20.3326  11.8973
20.3516  12.4506
20.3706  12.4944
20.3895  12.9778
20.4085  13.1383
20.4275  13.1821
20.4465  13.2256
20.4655  13.3148
20.4845  13.1843
20.5035  13.5259
20.5224  13.1798
20.5414  13.4819
20.5604  13.4015
20.5794  13.6097
20.5984  13.804
20.6174  13.7865
20.6364  13.984
20.6553  13.6473
20.6743  14.2083
20.6933  14.156
20.7123  14.3883
20.7313  14.7798
20.7503  15.0818
20.7693  15.2572
20.7882  15.4542
20.8072  16.2483
20.8262  17.1532
20.8452  17.8948
20.8642  18.2269
20.8832  18.8873
20.9022  19.3833
20.9212  19.8546
20.9401  19.9727
20.9591  20.1609
20.9781  20.3506
20.9971  20.8549
21.0161  21.1182
21.0351  21.0971
21.0541  20.8433
21.073  20.2822
21.092  19.6906
21.111  19.2199
21.13  18.5491
21.149  17.3192
21.168  15.7074
21.187  14.2445
21.2059  12.9393
21.2249  11.3112
21.2439  9.99171
21.2629  8.69352
21.2819  7.52931
21.3009  6.14035
21.3199  4.90223
21.3388  4.04746
21.3578  3.32283
21.3768  2.47954
21.3958  1.86327
21.4148  1.54907
21.4338  0.993406
21.4528  0.376404
21.4717  -0.117233
21.4907  -0.31866
21.5097  -0.564325
21.5287  -0.510844
21.5477  -0.388591
21.5667  0.0247444
21.5857  0.710166
21.6047  1.92107
21.6236  3.26421
21.6426  5.11262
21.6616  7.58264
21.6806  10.8655
21.6996  15.19
21.7186  20.7087
21.7376  27.1148
21.7565  34.3097
21.7755  42.8874
21.7945  53.1579
21.8135  64.9759
21.8325  76.9871
21.8515  86.3714
21.8705  90.6589
21.8894  89.6196
21.9084  83.4777
21.9274  72.7367
21.9464  58.9753
21.9654  45.8239
21.9844  34.3842
22.0034  26.1486
22.0223  20.1732
22.0413  16.0767
22.0603  13.1997
22.0793  11.2859
22.0983  9.88462
22.1173  8.4958
22.1363  6.81095
22.1553  5.14332
22.1742  3.55049
22.1932  2.11021
22.2122  1.03623
22.2312  0.273552
22.2502  -0.286124
22.2692  -0.576449
22.2882  -0.605566
22.3071  -0.454496
22.3261  -0.577798
22.3451  -0.430678
22.3641  -0.266526
22.3831  0.101147
22.4021  0.542421
22.4211  1.17515
22.44  0.837006
22.459  0.606814
22.478  0.251474
22.497  0.438112
22.516  0.271998
22.535  0.261577
22.554  0.252033
22.5729  0.22312
22.5919  0.279471
22.6109  0.183783
22.6299  0.303855
22.6489  0.241259
22.6679  0.0845672
22.6869  0.0279552
22.7059  0.0952243
22.7248  0.207672
22.7438  0.386118
22.7628  0.366983
22.7818  0.236536
22.8008  0.165311
22.8198  0.112495
22.8388  -0.125892
22.8577  -0.274094
22.8767  -0.206813
22.8957  -0.0102721
22.9147  -0.0644951
22.9337  -0.111978
22.9527  -0.175074
22.9717  -0.0710011
22.9906  -0.00517527
23.0096  0.177627
23.0286  0.107908
23.0476  0.169124
23.0666  0.287274
23.0856  0.659586
23.1046  0.681309
23.1235  0.544874
23.1425  0.489423
23.1615  0.47285
23.1805  0.473012
23.1995  0.530556
23.2185  0.784935
23.2375  0.601085
23.2565  0.384411
23.2754  0.150174
23.2944  0.0562644
23.3134  -0.223054
23.3324  -0.136743
23.3514  0.0732501
23.3704  0.27034
23.3894  0.0215046
23.4083  0.0380341
23.4273  -0.0902068
23.4463  0.182271
23.4653  0.505389
23.4843  0.777746
23.5033  0.339704
23.5223  0.851189
23.5412  1.51322
23.5602  1.5881
23.5792  0.992968
23.5982  0.607899
23.6172  0.417285
23.6362  0.406043
23.6552  0.272101
23.6741  0.316014
23.6931  0.0938718
23.7121  0.0720955
23.7311  0.197007
23.7501  0.458611
23.7691  0.509931
23.7881  0.32177
23.8071  0.118867
23.826  0.0298897
23.845  -0.182637
23.864  -0.13147
23.883  -0.0929385
23.902  0.128223
23.921  0.253181
23.94  0.414301
23.9589  0.411499
23.9779  0.407388
23.9969  0.269734
24.0159  0.0864975
24.0349  0.0515838
24.0539  0.00555542
24.0729  0.0778616
24.0918  0.00677762
24.1108  -9.62857e-05
24.1298  -0.189853
24.1488  -0.156165
24.1678  0.00911045
24.1868  0.080757
24.2058  0.117988
24.2247  0.0147566
24.2437  -0.0580584