File: data/processed/Run2_XRD/10_ReMoB2_530psi_noRuby_S_P1_C1_D1w_067.dat
2.93393  0.672171
2.95294  0.701586
2.97194  0.903272
2.99094  0.824961
3.00995  0.495623
3.02895  -0.197023
3.04795  -0.133863
3.06696  0.773595
3.08596  1.3573
3.10496  1.55242
3.12397  1.62088
3.14297  1.93924
3.16197  2.02086
3.18098  1.51053
3.19998  1.1357
3.21898  1.34799
3.23799  1.57114
3.25699  1.81496
3.27599  1.66058
3.295  1.72532
3.314  2.10321
3.333  2.61982
3.35201  3.35903
3.37101  3.75885
3.39001  4.02527
3.40902  4.79742
3.42802  5.59961
3.44702  8.12699
3.46603  11.5079
3.48503  17.2985
3.50403  22.1876
3.52304  24.7846
3.54204  23.319
3.56104  18.5195
3.58005  13.1216
3.59905  8.64885
3.61805  5.24894
3.63706  3.99986
3.65606  3.3169
3.67506  2.74079
3.69407  2.45052
3.71307  2.06695
3.73207  1.91559
3.75108  1.34502
3.77008  0.835831
3.78908  0.914403
3.80808  0.967657
3.82709  1.03557
3.84609  0.819707
3.86509  0.611403
3.8841  0.101791
3.9031  0.523213
3.9221  0.868841
3.94111  1.44952
3.96011  1.46436
3.97911  1.39931
3.99812  1.41382
4.01712  1.39362
4.03612  1.12288
4.05513  0.656366
4.07413  0.559674
4.09313  0.992091
4.11214  1.10073
4.13114  0.68167
4.15014  0.616469
4.16915  0.92914
4.18815  1.17225
4.20715  1.11461
4.22616  0.851059
4.24516  0.630501
4.26416  0.760161
4.28317  0.57037
4.30217  0.718373
4.32117  0.554983
4.34018  0.694929
4.35918  0.346135
4.37818  0.557443
4.39719  0.69205
4.41619  0.807661
4.43519  0.443473
4.4542  0.735583
4.4732  0.71237
4.4922  0.919809
4.51121  1.33069
4.53021  1.49933
4.54921  1.04974
4.56822  0.805661
4.58722  0.926879
4.60622  0.97582
4.62523  0.245999
4.64423  -0.232838
4.66323  -0.307812
4.68224  0.32498
4.70124  0.348657
4.72024  0.504849
4.73924  0.782744
4.75825  1.03432
4.77725  1.48339
4.79625  1.33129
4.81526  1.24902
4.83426  1.05529
4.85326  0.809952
4.87227  0.83951
4.89127  0.998664
4.91027  1.01116
4.92928  1.11906
4.94828  0.919098
4.96728  0.504971
4.98629  0.165735
5.00529  0.0793447
5.02429  0.220646
5.0433  0.301268
5.0623  0.142406
5.0813  -0.0812472
5.10031  0.484787
5.11931  0.730627
5.13831  1.08102
5.15732  0.774784
5.17632  0.468387
5.19532  0.0840928
5.21433  0.433759
5.23333  0.512655
5.25233  0.7454
5.27134  0.724399
5.29034  0.812338
5.30934  0.233481
5.32835  0.457275
5.34735  0.510594
5.36635  0.282183
5.38536  -0.0894168
5.40436  -0.0543634
5.42336  -0.0276005
5.44237  -0.0245502
5.46137  0.379446
5.48037  0.670375
5.49938  1.46817
5.51838  0.831757
5.53738  0.288725
5.55639  0.110418
5.57539  0.429732
5.59439  0.73977
5.6134  0.548793
5.6324  0.52033
5.6514  0.19252
5.67041  0.0340527
5.68941  0.0984806
5.70841  -0.0580735
5.72741  0.151405
5.74642  0.811589
5.76542  1.76337
5.78442  2.89646
5.80343  3.76394
5.82243  4.29936
5.84143  3.84867
5.86044  3.35314
5.87944  2.71949
5.89844  2.13458
5.91745  1.36992
5.93645  1.05785
5.95545  0.360533
5.97446  0.470363
5.99346  0.144566
6.01246  -0.0279491
6.03147  -0.339649
6.05047  0.393551
6.06947  0.673607
6.08848  0.677302
6.10748  0.19789
6.12648  -0.0522878
6.14549  0.0440336
6.16449  0.298887
6.18349  0.68654
6.2025  0.781252
6.2215  0.698396
6.2405  0.588731
6.25951  0.557122
6.27851  0.692352
6.29751  0.578326
6.31652  0.567308
6.33552  1.18338
6.35452  2.07513
6.37353  3.19018
6.39253  4.95971
6.41153  8.41332
6.43054  12.1915
6.44954  14.8732
6.46854  14.4532
6.48755  12.2796
6.50655  8.27468
6.52555  5.57048
6.54456  3.35721
6.56356  2.55306
6.58256  2.13086
6.60157  2.02581
6.62057  1.84517
6.63957  1.44721
6.65857  1.5981
6.67758  2.78077
6.69658  4.33946
6.71558  5.76543
6.73459  7.30928
6.75359  8.7167
6.77259  10.0068
6.7916  10.8726
6.8106  11.1842
6.8296  10.8611
6.84861  10.5024
6.86761  10.5086
6.88661  11.4123
6.90562  13.396
6.92462  16.6396
6.94362  23.205
6.96263  31.778
6.98163  44.6177
7.00063  58.3244
7.01964  71.3787
7.03864  80.1836
7.05764  83.355
7.07665  78.5085
7.09565  70.0512
7.11465  57.8666
7.13366  45.1893
7.15266  34.1703
7.17166  25.4885
7.19067  17.6721
7.20967  13.0651
7.22867  9.59888
7.24768  8.1116
7.26668  6.67577
7.28568  5.08952
7.30469  3.98771
7.32369  3.37819
7.34269  2.86226
7.3617  2.54925
7.3807  1.89878
7.3997  1.30918
7.41871  1.00223
7.43771  1.35705
7.45671  1.34796
7.47572  1.09445
7.49472  0.758364
7.51372  0.595651
7.53273  0.212873
7.55173  -0.104868
7.57073  0.169529
7.58973  0.67171
7.60874  1.06065
7.62774  1.02124
7.64674  0.462933
7.66575  -0.0313105
7.68475  -0.242866
7.70375  -0.132032
7.72276  0.192141
7.74176  0.398775
7.76076  0.7635
7.77977  0.787371
7.79877  0.659261
7.81777  0.505409
7.83678  0.159265
7.85578  0.0215866
7.87478  0.335182
7.89379  0.644844
7.91279  0.985942
7.93179  1.05742
7.9508  0.947557
7.9698  0.930847
7.9888  0.727057
8.00781  0.73623
8.02681  1.16162
8.04581  0.988907
8.06482  0.772104
8.08382  0.437965
8.10282  0.388208
8.12183  0.736157
8.14083  0.819064
8.15983  1.03352
8.17884  1.09635
8.19784  0.966893
8.21684  0.78111
8.23585  0.672977
8.25485  0.946244
8.27385  0.79088
8.29286  0.490273
8.31186  -0.0167573
8.33086  -0.155992
8.34987  -0.298287
8.36887  -0.0712158
8.38787  0.451309
8.40688  0.904055
8.42588  1.4856
8.44488  1.21365
8.46389  0.864744
8.48289  0.649612
8.50189  0.568302
8.52089  0.49355
8.5399  0.208079
8.5589  0.260926
8.5779  0.385761
8.59691  0.258018
8.61591  -0.149069
8.63491  -0.0946203
8.65392  -0.136784
8.67292  -0.0252865
8.69192  -0.206735
8.71093  -0.118172
8.72993  0.119801
8.74893  0.27561
8.76794  0.680153
8.78694  0.901059
8.80594  0.869885
8.82495  0.80437
8.84395  0.536108
8.86295  0.182737
8.88196  -0.171578
8.90096  0.18267
8.91996  0.580432
8.93897  0.592819
8.95797  0.719625
8.97697  0.719353
8.99598  0.573311
9.01498  0.723861
9.03398  1.47778
9.05299  2.476
9.07199  3.54032
9.09099  4.69211
9.11  6.48054
9.129  8.65822
9.148  11.9447
9.16701  15.9916
9.18601  21.3454
9.20501  27.5465
9.22402  34.6566
9.24302  42.3242
9.26202  49.819
9.28103  57.5644
9.30003  64.9702
9.31903  74.2383
9.33804  83.914
9.35704  94.7013
9.37604  105.176
9.39505  116.489
9.41405  131.302
9.43305  149.342
9.45206  172.823
9.47106  203.491
9.49006  240.272
9.50906  282.809
9.52807  324.004
9.54707  368.881
9.56607  400.384
9.58508  415.461
9.60408  410.303
9.62308  393.821
9.64209  366.873
9.66109  333.091
9.68009  299.991
9.6991  264.972
9.7181  237.93
9.7371  213.252
9.75611  192.197
9.77511  171.648
9.79411  149.865
9.81312  128.347
9.83212  107.117
9.85112  86.9378
9.87013  69.6199
9.88913  54.9555
9.90813  42.981
9.92714  33.6368
9.94614  26.0883
9.96514  20.319
9.98415  15.6929
10.0031  12.1859
10.0222  9.29039
10.0412  6.97454
10.0602  4.89915
10.0792  3.12328
10.0982  1.825
10.1172  1.35755
10.1362  1.18005
10.1552  0.555463
10.1742  -0.206853
10.1932  -0.633942
10.2122  -0.873104
10.2312  -0.902797
10.2502  -1.08711
10.2692  -0.77398
10.2882  -0.858039
10.3072  -0.620853
10.3262  -0.291892
10.3452  0.0941356
10.3642  0.41613
10.3832  0.647408
10.4022  1.0347
10.4212  1.1419
10.4402  1.35325
10.4592  1.82987
10.4782  2.43
10.4972  3.32778
10.5162  4.49477
10.5352  5.43818
10.5542  7.41262
10.5732  9.73702
10.5923  11.8881
10.6113  13.2973
10.6303  14.4529
10.6493  15.8202
10.6683  16.611
10.6873  17.0602
10.7063  17.3215
10.7253  17.9967
10.7443  18.8068
10.7633  18.6905
10.7823  18.6843
10.8013  18.186
10.8203  17.6439
10.8393  17.1146
10.8583  17.3
10.8773  17.9032
10.8963  18.5589
10.9153  19.68
10.9343  20.0589
10.9533  20.8777
10.9723  21.593
10.9913  22.8672
11.0103  24.5548
11.0293  26.31
11.0483  27.3539
11.0673  28.3657
11.0863  29.4954
11.1053  30.6474
11.1243  32.2955
11.1433  33.1961
11.1623  33.3384
11.1814  32.057
11.2004  31.075
11.2194  31.4954
11.2384  31.284
11.2574  31.1704
11.2764  30.5818
11.2954  29.9633
11.3144  30.5068
11.3334  31.423
11.3524  31.4774
11.3714  31.2222
11.3904  29.8741
11.4094  28.117
11.4284  24.8765
11.4474  21.5246
11.4664  17.3016
11.4854  14.5065
11.5044  11.8242
11.5234  9.2225
11.5424  7.33743
11.5614  5.43879
11.5804  4.16235
11.5994  3.14164
11.6184  2.63073
11.6374  2.64878
11.6564  2.75661
11.6754  2.16481
11.6944  1.59873
11.7134  1.24625
11.7324  0.942714
11.7515  0.763938
11.7705  0.303424
11.7895  -0.274969
11.8085  -0.595629
11.8275  -0.7784
11.8465  -0.914097
11.8655  -1.01105
11.8845  -1.05762
11.9035  -0.719621
11.9225  -0.77305
11.9415  -0.0784229
11.9605  0.927428
11.9795  2.46917
11.9985  4.01402
12.0175  5.65834
12.0365  8.12979
12.0555  10.9803
12.0745  15.701
12.0935  20.5225
12.1125  27.7077
12.1315  35.2624
12.1505  42.8074
12.1695  52.0034
12.1885  59.6955
12.2075  65.5942
12.2265  67.8674
12.2455  65.6889
12.2645  61.1081
12.2835  55.2597
12.3025  47.8717
12.3215  41.4515
12.3406  36.3277
12.3596  31.8103
12.3786  29.1403
12.3976  27.3545
12.4166  27.0569
12.4356  28.0969
12.4546  28.5208
12.4736  30.5567
12.4926  31.9092
12.5116  35.7855
12.5306  39.2454
12.5496  44.1484
12.5686  48.5081
12.5876  54.0421
12.6066  61.5243
12.6256  67.7492
12.6446  76.9993
12.6636  83.2116
12.6826  92.3664
12.7016  98.4498
12.7206  103.501
12.7396  104.718
12.7586  103.437
12.7776  97.9187
12.7966  90.7278
12.8156  80.5794
12.8346  70.8769
12.8536  62.2484
12.8726  53.1978
12.8916  48.7137
12.9106  44.1425
12.9297  41.3347
12.9487  38.2176
12.9677  36.5585
12.9867  35.1675
13.0057  34.4564
13.0247  33.8145
13.0437  33.3308
13.0627  32.6831
13.0817  31.9301
13.1007  31.462
13.1197  30.9489
13.1387  30.2558
13.1577  30.331
13.1767  30.0677
13.1957  29.7254
13.2147  28.9751
13.2337  28.3253
13.2527  28.2465
13.2717  28.0301
13.2907  27.9728
13.3097  27.8895
13.3287  27.6231
13.3477  27.2247
13.3667  27.2308
13.3857  27.3872
13.4047  27.3335
13.4237  27.5822
13.4427  28.4104
13.4617  29.542
13.4807  30.7668
13.4998  31.8614
13.5188  32.8611
13.5378  33.8808
13.5568  34.1972
13.5758  33.801
13.5948  32.1545
13.6138  29.5696
13.6328  25.7677
13.6518  21.0531
13.6708  16.3324
13.6898  12.2375
13.7088  8.47255
13.7278  5.74323
13.7468  3.72007
13.7658  2.59697
13.7848  1.5009
13.8038  0.451708
13.8228  -0.223876
13.8418  -0.578056
13.8608  -0.535728
13.8798  -0.422528
13.8988  0.231264
13.9178  0.574707
13.9368  0.93512
13.9558  1.18998
13.9748  1.74179
13.9938  2.1652
14.0128  2.39732
14.0318  2.47496
14.0508  2.93196
14.0698  3.55915
14.0889  4.06459
14.1079  4.96545
14.1269  6.1255
14.1459  7.25958
14.1649  8.25282
14.1839  8.72115
14.2029  9.35745
14.2219  10.1185
14.2409  11.1659
14.2599  12.3454
14.2789  13.0675
14.2979  14.2966
14.3169  14.7717
14.3359  15.2406
14.3549  13.887
14.3739  11.7174
14.3929  8.71655
14.4119  6.12662
14.4309  3.65843
14.4499  1.75958
14.4689  0.416909
14.4879  -0.400749
14.5069  -0.594711
14.5259  -0.605204
14.5449  -0.460059
14.5639  -0.64721
14.5829  -0.928062
14.6019  -0.749968
14.6209  -0.553554
14.6399  -0.313176
14.6589  -0.224875
14.678  0.137832
14.697  0.302966
14.716  0.28322
14.735  0.227538
14.754  0.291995
14.773  0.169412
14.792  -0.00560112
14.811  0.447039
14.83  0.687163
14.849  0.800156
14.868  0.54185
14.887  0.170425
14.906  0.602437
14.925  0.835644
14.944  0.863319
14.963  0.255006
14.982  0.0856638
15.001  0.245807
15.02  0.30214
15.039  0.478854
15.058  0.537213
15.077  0.494321
15.096  0.302398
15.115  0.0537449
15.134  0.253622
15.153  0.612312
15.172  0.919862
15.191  0.687301
15.21  0.654713
15.229  0.56652
15.2481  0.253681
15.2671  0.230447
15.2861  -0.0139069
15.3051  -0.0762842
15.3241  -0.0555373
15.3431  0.245917
15.3621  0.408797
15.3811  0.418612
15.4001  0.379403
15.4191  0.220977
15.4381  -0.0375768
15.4571  0.0248452
15.4761  0.142614
15.4951  0.452832
15.5141  0.634508
15.5331  0.623921
15.5521  0.56842
15.5711  0.567978
15.5901  0.462649
15.6091  0.451119
15.6281  0.399505
15.6471  0.626526
15.6661  0.614379
15.6851  1.05241
15.7041  1.30714
15.7231  1.70267
15.7421  1.94111
15.7611  2.12836
15.7801  2.22731
15.7991  2.54114
15.8181  2.7413
15.8372  3.09191
15.8562  3.53237
15.8752  3.85218
15.8942  4.42956
15.9132  4.84832
15.9322  5.5469
15.9512  6.25789
15.9702  7.20306
15.9892  8.08117
16.0082  8.46574
16.0272  8.91397
16.0462  9.66054
16.0652  10.608
16.0842  11.5703
16.1032  12.0683
16.1222  13.1665
16.1412  14.1819
16.1602  15.4126
16.1792  16.1218
16.1982  17.1697
16.2172  18.1412
16.2362  19.2197
16.2552  20.0316
16.2742  20.6021
16.2932  20.9085
16.3122  21.0067
16.3312  21.1748
16.3502  21.4504
16.3692  22.224
16.3882  23.2605
16.4073  24.4631
16.4263  26.091
16.4453  27.3022
16.4643  28.4978
16.4833  29.3505
16.5023  30.2781
16.5213  30.7352
16.5403  30.5635
16.5593  30.1806
16.5783  29.3169
16.5973  28.1807
16.6163  26.3619
16.6353  24.4967
16.6543  22.3666
16.6733  19.9026
16.6923  17.3331
16.7113  15.1115
16.7303  13.2548
16.7493  11.8322
16.7683  10.1964
16.7873  8.66724
16.8063  7.69223
16.8253  6.84459
16.8443  6.23984
16.8633  5.35243
16.8823  4.85797
16.9013  4.31991
16.9203  3.61845
16.9393  3.31426
16.9583  3.32632
16.9773  3.27533
16.9964  3.04406
17.0154  2.57482
17.0344  2.32783
17.0534  2.04354
17.0724  2.03101
17.0914  1.68182
17.1104  1.46441
17.1294  1.4085
17.1484  1.82146
17.1674  1.70236
17.1864  1.66453
17.2054  1.43605
17.2244  1.58077
17.2434  1.7317
17.2624  1.77525
17.2814  1.86052
17.3004  1.68872
17.3194  1.79753
17.3384  1.5719
17.3574  1.79843
17.3764  2.19166
17.3954  2.55012
17.4144  2.79034
17.4334  2.53345
17.4524  2.96081
17.4714  2.94326
17.4904  3.09284
17.5094  3.11248
17.5284  3.92643
17.5474  4.22018
17.5664  4.69735
17.5855  4.78024
17.6045  5.4248
17.6235  6.05466
17.6425  6.72414
17.6615  7.17211
17.6805  7.89968
17.6995  8.78918
17.7185  10.1427
17.7375  11.5814
17.7565  12.7578
17.7755  14.2574
17.7945  15.971
17.8135  18.3553
17.8325  21.1692
17.8515  24.127
17.8705  27.3775
17.8895  31.3274
17.9085  35.7693
17.9275  40.4024
17.9465  45.043
17.9655  49.3323
17.9845  53.2396
18.0035  56.0284
18.0225  58.4643
18.0415  60.0777
18.0605  61.3388
18.0795  61.8318
18.0985  61.3382
18.1175  60.4176
18.1365  58.0615
18.1556  55.3559
18.1746  52.54
18.1936  49.828
18.2126  46.7171
18.2316  43.3849
18.2506  39.6732
18.2696  36.1104
18.2886  32.3779
18.3076  28.8214
18.3266  25.598
18.3456  22.6844
18.3646  19.8616
18.3836  17.4716
18.4026  14.939
18.4216  13.0631
18.4406  11.385
18.4596  9.91695
18.4786  8.5165
18.4976  7.48031
18.5166  6.64474
18.5356  5.88771
18.5546  5.21179
18.5736  4.30433
18.5926  3.8537
18.6116  3.22264
18.6306  2.66719
18.6496  2.05671
18.6686  1.69169
18.6876  1.36196
18.7066  1.07186
18.7256  0.561154
18.7447  -0.0701542
18.7637  -0.0592537
18.7827  -0.0201729
18.8017  -0.0486533
18.8207  -0.199746
18.8397  -0.154443
18.8587  -0.164948
18.8777  0.0862353
18.8967  0.251714
18.9157  0.38546
18.9347  0.329711
18.9537  0.786106
18.9727  1.25758
18.9917  2.0674
19.0107  2.57323
19.0297  3.16538
19.0487  3.70563
19.0677  4.01283
19.0867  4.15425
19.1057  4.14791
19.1247  4.10841
19.1437  4.36386
19.1627  4.42279
19.1817  4.3405
19.2007  4.00582
19.2197  3.78548
19.2387  3.61329
19.2577  3.07643
19.2767  2.40872
19.2957  1.87053
19.3148  1.51765
19.3338  1.20178
19.3528  0.594098
19.3718  0.191978
19.3908  -0.0587385
19.4098  -0.241524
19.4288  -0.491374
19.4478  -0.46707
19.4668  -0.452615
19.4858  -0.394577
19.5048  -0.413123
19.5238  -0.446242
19.5428  -0.305171
19.5618  -0.143141
19.5808  -0.122995
19.5998  -0.0386346
19.6188  0.212893
19.6378  0.512147
19.6568  0.633383
19.6758  0.754877
19.6948  0.733557
19.7138  1.07507
19.7328  1.46967
19.7518  2.27118
19.7708  2.66318
19.7898  3.05342
19.8088  3.2868
19.8278  3.86944
19.8468  4.04777
19.8658  4.73698
19.8848  5.21363
19.9039  5.68732
19.9229  6.03158
19.9419  6.39836
19.9609  6.4085
19.9799  6.21963
19.9989  6.02499
20.0179  5.95142
20.0369  5.40958
20.0559  4.81691
20.0749  4.20477
20.0939  3.6799
20.1129  3.03943
20.1319  2.40638
20.1509  2.18342
20.1699  2.17591
20.1889  1.88322
20.2079  1.50844
20.2269  1.33405
20.2459  1.36332
20.2649  1.36622
20.2839  1.28445
20.3029  1.11722
20.3219  0.85422
20.3409  0.748628
20.3599  0.710478
20.3789  0.632316
20.3979  0.673267
20.4169  0.752061
20.4359  0.912174
20.4549  0.835829
20.4739  0.583221
20.493  0.30624
20.512  -0.029226
20.531  -0.124486
20.55  0.130741
20.569  0.55946
20.588  0.541914
20.607  0.540731
20.626  0.369966
20.645  0.41077
20.664  0.463117
20.683  0.233123
20.702  0.202734
20.721  0.106443
20.74  0.0669167
20.759  0.205367
20.778  0.103342
20.797  -0.0910232
20.816  0.0891413
20.835  0.244178
20.854  0.337122
20.873  0.292713
20.892  0.330353
20.911  0.17306
20.93  0.0722145
20.949  -0.0240718
20.968  0.0816651
20.987  0.285125
21.006  0.210717
21.025  0.222673
21.044  0.16445
21.0631  0.290408
21.0821  0.433644
21.1011  0.450356
21.1201  0.395695
21.1391  0.491295
21.1581  0.278482
21.1771  0.207843
21.1961  0.142852
21.2151  0.240294
21.2341  2.87903e-05
21.2531  0.184049
21.2721  0.489
21.2911  0.546408
21.3101  0.279999
21.3291  0.011739
21.3481  0.0932911
21.3671  0.104073
21.3861  -0.0118016
21.4051  0.041442
21.4241  -0.020991
21.4431  0.273989
21.4621  0.343448
21.4811  0.219952
21.5001  0.114038
21.5191  0.0241785
21.5381  0.187094
21.5571  0.00823063
21.5761  -0.115531
21.5951  -0.029215
21.6141  0.122207
21.6331  0.0858738
21.6522  -0.0188247
21.6712  -0.0163925
21.6902  0.0738358
21.7092  -0.0215614
21.7282  -0.093347
21.7472  -0.0277702
21.7662  0.00918089
21.7852  0.0559086
21.8042  0.0622565
21.8232  0.0369988
21.8422  0.181148
21.8612  0.0501058
21.8802  -0.109061
21.8992  -0.226705
21.9182  -0.0354272
21.9372  -0.00744158
21.9562  0.164401
21.9752  0.00485223
21.9942  0.0231576
22.0132  -0.080416
22.0322  0.0252004