File: data/processed/Run2_XRD/11_ReMoB2_550psi_noRuby_S_P1_C1_D1w_073.dat
2.93393  0.472962
2.95294  0.954785
2.97194  0.360168
2.99094  0.181081
3.00995  -0.0947123
3.02895  0.324432
3.04795  0.794169
3.06696  1.24583
3.08596  1.40163
3.10496  1.41691
3.12397  1.05243
3.14297  0.622421
3.16197  0.256265
3.18098  -0.305262
3.19998  0.466132
3.21898  1.00612
3.23799  1.47628
3.25699  1.56365
3.27599  1.52575
3.295  1.33018
3.314  0.988981
3.333  0.59217
3.35201  1.38771
3.37101  2.44432
3.39001  3.10227
3.40902  3.34616
3.42802  4.28734
3.44702  5.49617
3.46603  9.12639
3.48503  14.4939
3.50403  19.5506
3.52304  23.9277
3.54204  24.2586
3.56104  20.908
3.58005  14.5698
3.59905  8.88767
3.61805  5.26664
3.63706  3.71693
3.65606  2.82775
3.67506  2.60172
3.69407  2.38167
3.71307  2.01138
3.73207  1.6261
3.75108  1.43408
3.77008  1.39844
3.78908  1.33076
3.80808  1.35249
3.82709  1.33511
3.84609  1.59238
3.86509  1.36998
3.8841  1.2553
3.9031  1.07439
3.9221  1.00702
3.94111  0.118836
3.96011  -0.0922553
3.97911  0.141448
3.99812  0.906493
4.01712  1.51778
4.03612  1.53576
4.05513  1.38961
4.07413  1.11179
4.09313  0.889227
4.11214  1.12413
4.13114  1.30971
4.15014  1.08936
4.16915  0.40542
4.18815  -0.0214484
4.20715  0.148348
4.22616  0.311515
4.24516  0.268168
4.26416  0.454963
4.28317  -0.00495758
4.30217  0.45193
4.32117  0.487583
4.34018  0.763429
4.35918  0.604467
4.37818  0.426714
4.39719  -0.0324423
4.41619  0.0902044
4.43519  0.185447
4.4542  0.767459
4.4732  0.482166
4.4922  0.698094
4.51121  0.804911
4.53021  1.1681
4.54921  0.844346
4.56822  0.717649
4.58722  0.40678
4.60622  0.657843
4.62523  0.721471
4.64423  0.895818
4.66323  1.14451
4.68224  1.28723
4.70124  0.841204
4.72024  0.284377
4.73924  0.0674249
4.75825  0.167665
4.77725  0.489489
4.79625  0.342651
4.81526  0.473936
4.83426  0.283699
4.85326  0.315834
4.87227  0.152707
4.89127  0.429345
4.91027  0.540687
4.92928  0.586585
4.94828  0.684608
4.96728  0.446397
4.98629  0.00846925
5.00529  -0.401001
5.02429  -0.0137039
5.0433  0.695001
5.0623  1.04827
5.0813  1.17393
5.10031  1.08224
5.11931  0.954867
5.13831  0.553845
5.15732  0.642388
5.17632  0.340577
5.19532  0.348919
5.21433  0.493481
5.23333  0.688144
5.25233  0.540438
5.27134  0.172562
5.29034  0.111804
5.30934  0.175928
5.32835  0.342072
5.34735  0.709301
5.36635  0.516464
5.38536  0.640418
5.40436  0.441568
5.42336  0.505459
5.44237  -0.182338
5.46137  0.196048
5.48037  0.471363
5.49938  1.03998
5.51838  0.661759
5.53738  0.19488
5.55639  -0.148685
5.57539  0.0648795
5.59439  -0.206929
5.6134  -0.0900043
5.6324  -0.0475016
5.6514  -0.0677792
5.67041  0.476277
5.68941  0.919359
5.70841  1.38564
5.72741  1.38155
5.74642  1.15628
5.76542  1.5514
5.78442  1.80746
5.80343  2.42969
5.82243  2.43068
5.84143  2.64193
5.86044  2.42952
5.87944  1.6372
5.89844  1.29659
5.91745  0.796412
5.93645  0.769118
5.95545  0.658351
5.97446  0.556891
5.99346  0.423912
6.01246  0.225045
6.03147  0.394997
6.05047  0.745104
6.06947  1.003
6.08848  0.810597
6.10748  0.775153
6.12648  0.927862
6.14549  0.983277
6.16449  0.64482
6.18349  -0.233863
6.2025  -0.328592
6.2215  -0.0140421
6.2405  0.579338
6.25951  0.775541
6.27851  1.10234
6.29751  1.19766
6.31652  1.07603
6.33552  0.87145
6.35452  0.999451
6.37353  1.70008
6.39253  2.93861
6.41153  4.2584
6.43054  6.31586
6.44954  7.40608
6.46854  7.8079
6.48755  6.60879
6.50655  5.31252
6.52555  3.88901
6.54456  2.73306
6.56356  1.7398
6.58256  1.06901
6.60157  0.885771
6.62057  1.04197
6.63957  1.28123
6.65857  1.30856
6.67758  1.61784
6.69658  2.50601
6.71558  3.81053
6.73459  5.11316
6.75359  5.73102
6.77259  6.64996
6.7916  7.42723
6.8106  8.64178
6.8296  8.9775
6.84861  9.23291
6.86761  9.19576
6.88661  9.29555
6.90562  10.268
6.92462  12.2497
6.94362  16.3929
6.96263  22.7263
6.98163  31.8952
7.00063  44.54
7.01964  57.4025
7.03864  72.8556
7.05764  83.4421
7.07665  87.8037
7.09565  85.6493
7.11465  76.6962
7.13366  63.3466
7.15266  49.2939
7.17166  37.3546
7.19067  26.6721
7.20967  19.9513
7.22867  14.0114
7.24768  10.6835
7.26668  7.66007
7.28568  5.67173
7.30469  4.46484
7.32369  3.51525
7.34269  3.06518
7.3617  2.64836
7.3807  2.12681
7.3997  1.61421
7.41871  1.34401
7.43771  1.02921
7.45671  0.428123
7.47572  0.229689
7.49472  0.385277
7.51372  0.433531
7.53273  0.399329
7.55173  0.293052
7.57073  0.39737
7.58973  0.619742
7.60874  0.928722
7.62774  0.690043
7.64674  0.368726
7.66575  0.0266356
7.68475  0.15992
7.70375  0.0760024
7.72276  0.0103834
7.74176  0.160581
7.76076  0.552048
7.77977  0.598984
7.79877  0.336006
7.81777  -0.0812409
7.83678  -0.0144034
7.85578  0.111162
7.87478  0.426795
7.89379  0.0871315
7.91279  0.216006
7.93179  0.535254
7.9508  0.909462
7.9698  0.473807
7.9888  0.334843
8.00781  0.334767
8.02681  0.463526
8.04581  0.314445
8.06482  0.180795
8.08382  -0.101463
8.10282  0.275181
8.12183  0.534794
8.14083  0.978976
8.15983  0.482209
8.17884  0.397168
8.19784  0.258737
8.21684  0.233342
8.23585  0.182706
8.25485  -0.0238201
8.27385  0.0282615
8.29286  0.508756
8.31186  0.951234
8.33086  1.11336
8.34987  0.910983
8.36887  0.406457
8.38787  0.356491
8.40688  0.0706965
8.42588  0.404896
8.44488  0.55186
8.46389  0.763799
8.48289  1.02981
8.50189  0.836661
8.52089  0.776759
8.5399  0.710054
8.5589  0.295011
8.5779  0.0636664
8.59691  -0.208167
8.61591  -0.277058
8.63491  -0.488771
8.65392  -0.568335
8.67292  -0.376878
8.69192  -0.197294
8.71093  -0.322471
8.72993  -0.209704
8.74893  -0.222363
8.76794  0.219067
8.78694  0.29282
8.80594  0.0879426
8.82495  0.169605
8.84395  0.199245
8.86295  0.348866
8.88196  0.285653
8.90096  0.218481
8.91996  0.305008
8.93897  0.42468
8.95797  0.598625
8.97697  0.986139
8.99598  1.25637
9.01498  1.12771
9.03398  1.80472
9.05299  2.9285
9.07199  4.19448
9.09099  5.66148
9.11  7.10691
9.129  9.49435
9.148  13.0745
9.16701  18.3538
9.18601  25.3192
9.20501  33.8016
9.22402  43.9151
9.24302  55.9598
9.26202  68.0591
9.28103  81.1758
9.30003  92.1553
9.31903  103.036
9.33804  111.962
9.35704  120.997
9.37604  128.442
9.39505  134.801
9.41405  141.196
9.43305  147.41
9.45206  154.821
9.47106  165.46
9.49006  179.633
9.50906  198.838
9.52807  220.761
9.54707  248.644
9.56607  274.474
9.58508  294.162
9.60408  304.452
9.62308  306.287
9.64209  300.079
9.66109  286.308
9.68009  267.791
9.6991  245.876
9.7181  225.624
9.7371  205.234
9.75611  186.382
9.77511  168.891
9.79411  151.607
9.81312  135.709
9.83212  119.359
9.85112  102.737
9.87013  85.6107
9.88913  70.3387
9.90813  55.9305
9.92714  44.5419
9.94614  34.6091
9.96514  27.3409
9.98415  21.622
10.0031  17.0356
10.0222  13.1491
10.0412  9.96123
10.0602  7.63887
10.0792  5.79212
10.0982  4.23674
10.1172  3.20684
10.1362  2.23262
10.1552  1.62326
10.1742  0.774919
10.1932  0.231222
10.2122  -0.419871
10.2312  -0.562431
10.2502  -0.631993
10.2692  -0.6385
10.2882  -0.880464
10.3072  -0.895721
10.3262  -1.02898
10.3452  -0.88936
10.3642  -0.682667
10.3832  -0.33853
10.4022  0.097979
10.4212  0.0791467
10.4402  0.0446208
10.4592  0.67072
10.4782  1.49941
10.4972  2.4084
10.5162  3.08043
10.5352  4.15361
10.5542  5.31539
10.5732  6.72196
10.5923  8.21173
10.6113  9.80255
10.6303  11.2319
10.6493  12.8166
10.6683  14.0106
10.6873  14.7822
10.7063  15.0421
10.7253  15.0318
10.7443  15.1511
10.7633  15.4463
10.7823  15.4077
10.8013  15.2334
10.8203  15.124
10.8393  14.6236
10.8583  14.3037
10.8773  14.6519
10.8963  15.4295
10.9153  15.95
10.9343  15.8807
10.9533  16.152
10.9723  17.3257
10.9913  18.5351
11.0103  20.0226
11.0293  21.3407
11.0483  23.054
11.0673  24.8608
11.0863  26.6448
11.1053  28.098
11.1243  29.8362
11.1433  31.2775
11.1623  32.4872
11.1814  32.4223
11.2004  32.03
11.2194  31.4804
11.2384  30.3747
11.2574  28.7056
11.2764  27.0947
11.2954  25.3944
11.3144  23.8369
11.3334  22.3067
11.3524  20.9818
11.3714  19.4168
11.3904  18.3576
11.4094  17.5877
11.4284  16.5037
11.4474  15.6493
11.4664  14.188
11.4854  12.9514
11.5044  11.4666
11.5234  9.72918
11.5424  8.06723
11.5614  6.29812
11.5804  4.90109
11.5994  3.67333
11.6184  2.79449
11.6374  1.9188
11.6564  1.2697
11.6754  0.972555
11.6944  0.632671
11.7134  0.173408
11.7324  -0.154978
11.7515  -0.627372
11.7705  -0.866956
11.7895  -1.02425
11.8085  -0.849325
11.8275  -0.803192
11.8465  -0.917012
11.8655  -0.441045
11.8845  0.0738476
11.9035  1.03937
11.9225  2.04588
11.9415  3.44734
11.9605  5.64265
11.9795  7.73721
11.9985  10.7915
12.0175  14.8959
12.0365  20.5178
12.0555  27.1876
12.0745  37.4119
12.0935  47.7108
12.1125  63.5707
12.1315  81.7968
12.1505  102.206
12.1695  129.995
12.1885  155.621
12.2075  181.544
12.2265  203.492
12.2455  211.599
12.2645  203.221
12.2835  186.041
12.3025  159.764
12.3215  130.784
12.3406  104.262
12.3596  81.7444
12.3786  66.0841
12.3976  53.373
12.4166  44.8724
12.4356  38.9994
12.4546  35.6219
12.4736  33.4746
12.4926  32.5503
12.5116  32.3199
12.5306  32.2549
12.5496  33.1285
12.5686  34.7303
12.5876  37.1382
12.6066  40.024
12.6256  43.4735
12.6446  47.3023
12.6636  51.8305
12.6826  57.6581
12.7016  63.6789
12.7206  69.5321
12.7396  74.2336
12.7586  77.111
12.7776  77.8893
12.7966  76.2038
12.8156  72.341
12.8346  66.4378
12.8536  59.9661
12.8726  53.2776
12.8916  48.029
12.9106  43.6292
12.9297  40.8378
12.9487  38.1841
12.9677  36.4717
12.9867  35.0399
13.0057  34.4342
13.0247  34.2709
13.0437  34.6803
13.0627  34.8804
13.0817  35.2524
13.1007  35.6775
13.1197  35.6466
13.1387  34.7162
13.1577  34.1535
13.1767  33.8174
13.1957  33.6941
13.2147  33.1265
13.2337  32.5219
13.2527  31.5335
13.2717  30.7666
13.2907  30.2149
13.3097  29.726
13.3287  29.1885
13.3477  28.3975
13.3667  27.5478
13.3857  26.7378
13.4047  25.8634
13.4237  25.1128
13.4427  24.5351
13.4617  24.2474
13.4807  23.9103
13.4998  23.8676
13.5188  23.9799
13.5378  24.0386
13.5568  24.0749
13.5758  23.7392
13.5948  22.8988
13.6138  21.8856
13.6328  20.4716
13.6518  18.6504
13.6708  15.852
13.6898  12.7714
13.7088  9.59727
13.7278  7.42932
13.7468  5.65397
13.7658  4.00975
13.7848  2.26832
13.8038  0.605072
13.8228  -0.30899
13.8418  -0.970602
13.8608  -0.849471
13.8798  -0.663365
13.8988  -0.221191
13.9178  -0.414981
13.9368  -0.595854
13.9558  -0.648495
13.9748  -0.580766
13.9938  -0.591873
14.0128  -0.149492
14.0318  0.679995
14.0508  1.57148
14.0698  2.32037
14.0889  2.86511
14.1079  3.65656
14.1269  4.50433
14.1459  5.53904
14.1649  6.53726
14.1839  8.00643
14.2029  8.63329
14.2219  9.34121
14.2409  10.1833
14.2599  11.2072
14.2789  12.0975
14.2979  13.1697
14.3169  13.9519
14.3359  14.4401
14.3549  14.1493
14.3739  12.7607
14.3929  11.4679
14.4119  9.45853
14.4309  7.56401
14.4499  5.31175
14.4689  3.36691
14.4879  1.58294
14.5069  0.574887
14.5259  0.184016
14.5449  0.0416643
14.5639  -0.0716501
14.5829  -0.13875
14.6019  -0.343436
14.6209  -0.47767
14.6399  -0.367018
14.6589  -0.506411
14.678  -0.533073
14.697  -0.527475
14.716  -0.216788
14.735  -0.323738
14.754  -0.279215
14.773  -0.246797
14.792  -0.349694
14.811  -0.512541
14.83  -0.320883
14.849  -0.204658
14.868  -0.101039
14.887  0.129211
14.906  0.425565
14.925  0.569366
14.944  0.636728
14.963  0.5112
14.982  0.351285
15.001  0.0300702
15.02  0.0804264
15.039  0.257412
15.058  0.397574
15.077  0.411093
15.096  0.553372
15.115  0.779074
15.134  0.31077
15.153  -0.00944784
15.172  -0.0901346
15.191  0.308164
15.21  0.67342
15.229  1.08075
15.2481  1.13551
15.2671  0.928117
15.2861  0.758079
15.3051  0.400928
15.3241  0.367318
15.3431  0.44623
15.3621  0.538586
15.3811  0.411023
15.4001  0.41413
15.4191  0.357353
15.4381  0.391299
15.4571  0.518746
15.4761  0.487439
15.4951  0.416224
15.5141  0.241944
15.5331  0.150604
15.5521  0.0843907
15.5711  0.273531
15.5901  0.602181
15.6091  0.528358
15.6281  0.400201
15.6471  0.215755
15.6661  0.38845
15.6851  0.665446
15.7041  0.637551
15.7231  1.15977
15.7421  1.17203
15.7611  1.31047
15.7801  1.29001
15.7991  1.78416
15.8181  2.0958
15.8372  2.17499
15.8562  2.23366
15.8752  2.83475
15.8942  3.69917
15.9132  4.25685
15.9322  4.55095
15.9512  4.67914
15.9702  4.79724
15.9892  5.38153
16.0082  6.23146
16.0272  7.48998
16.0462  8.64665
16.0652  9.41502
16.0842  9.85721
16.1032  10.4957
16.1222  11.1264
16.1412  11.6715
16.1602  12.2818
16.1792  13.0265
16.1982  13.8509
16.2172  14.8272
16.2362  15.4967
16.2552  16.3037
16.2742  16.5475
16.2932  17.1924
16.3122  17.74
16.3312  18.4045
16.3502  18.5745
16.3692  18.9702
16.3882  20.0236
16.4073  21.1554
16.4263  22.3104
16.4453  23.7849
16.4643  25.7255
16.4833  28.0927
16.5023  30.661
16.5213  33.2635
16.5403  35.9659
16.5593  38.4127
16.5783  39.6079
16.5973  39.9611
16.6163  38.9413
16.6353  37.5999
16.6543  35.2589
16.6733  33.1191
16.6923  30.6221
16.7113  28.2274
16.7303  25.3158
16.7493  22.0274
16.7683  18.933
16.7873  16.1964
16.8063  13.5823
16.8253  11.695
16.8443  10.1895
16.8633  8.61914
16.8823  7.32311
16.9013  6.44297
16.9203  5.80867
16.9393  5.07932
16.9583  4.57344
16.9773  4.02697
16.9964  3.52419
17.0154  3.10205
17.0344  2.98144
17.0534  2.77799
17.0724  2.27202
17.0914  1.78655
17.1104  1.6935
17.1294  1.65687
17.1484  1.47596
17.1674  1.31398
17.1864  1.21327
17.2054  1.20468
17.2244  1.29211
17.2434  1.62019
17.2624  1.76783
17.2814  1.87515
17.3004  1.82479
17.3194  1.62425
17.3384  1.31108
17.3574  1.31576
17.3764  1.48698
17.3954  1.76822
17.4144  1.85806
17.4334  1.85276
17.4524  1.9952
17.4714  2.48357
17.4904  2.74461
17.5094  2.85196
17.5284  3.08051
17.5474  3.55526
17.5664  4.05936
17.5855  4.30087
17.6045  4.48956
17.6235  4.74953
17.6425  5.17686
17.6615  5.98795
17.6805  6.93083
17.6995  7.58821
17.7185  8.22282
17.7375  8.89436
17.7565  10.1339
17.7755  11.489
17.7945  12.6442
17.8135  14.1047
17.8325  15.8077
17.8515  18.2384
17.8705  21.0342
17.8895  23.868
17.9085  27.4894
17.9275  31.6167
17.9465  36.195
17.9655  40.9147
17.9845  46.7224
18.0035  52.6852
18.0225  57.8086
18.0415  61.8725
18.0605  64.6646
18.0795  66.8872
18.0985  67.948
18.1175  67.8008
18.1365  66.6404
18.1556  64.996
18.1746  62.4874
18.1936  59.6984
18.2126  56.7571
18.2316  53.6941
18.2506  50.2473
18.2696  46.7666
18.2886  43.0148
18.3076  39.1886
18.3266  35.6724
18.3456  31.8907
18.3646  28.4577
18.3836  25.8059
18.4026  23.6087
18.4216  21.2888
18.4406  18.9905
18.4596  16.7664
18.4786  14.5492
18.4976  12.6854
18.5166  11.102
18.5356  9.71567
18.5546  8.33332
18.5736  6.94599
18.5926  5.94821
18.6116  5.2486
18.6306  4.44204
18.6496  3.83131
18.6686  3.40757
18.6876  3.02173
18.7066  2.38887
18.7256  1.92615
18.7447  1.36808
18.7637  1.07345
18.7827  0.718763
18.8017  0.592739
18.8207  0.248756
18.8397  0.058255
18.8587  -0.314815
18.8777  -0.435185
18.8967  -0.342861
18.9157  -0.311977
18.9347  -0.24955
18.9537  -0.0437565
18.9727  0.314037
18.9917  0.507415
19.0107  0.988755
19.0297  1.37937
19.0487  2.07007
19.0677  2.72166
19.0867  3.46905
19.1057  4.15892
19.1247  4.6933
19.1437  5.13828
19.1627  5.34952
19.1817  5.47548
19.2007  5.61758
19.2197  5.78417
19.2387  5.85118
19.2577  5.39277
19.2767  4.9161
19.2957  4.53825
19.3148  4.01517
19.3338  3.61533
19.3528  3.04547
19.3718  2.46705
19.3908  1.76151
19.4098  1.26093
19.4288  0.989362
19.4478  0.715017
19.4668  0.468894
19.4858  0.132491
19.5048  -0.0875357
19.5238  -0.297222
19.5428  -0.427523
19.5618  -0.681383
19.5808  -0.611736
19.5998  -0.547739
19.6188  -0.512997
19.6378  -0.370241
19.6568  -0.0211677
19.6758  0.0889237
19.6948  0.143461
19.7138  0.266195
19.7328  0.465684
19.7518  0.752782
19.7708  0.924281
19.7898  0.969807
19.8088  0.999531
19.8278  1.19656
19.8468  1.63035
19.8658  2.18936
19.8848  2.23345
19.9039  2.22458
19.9229  2.66286
19.9419  3.26909
19.9609  3.70391
19.9799  3.57016
19.9989  3.74639
20.0179  3.85504
20.0369  3.86739
20.0559  3.67217
20.0749  3.23855
20.0939  2.99652
20.1129  2.55955
20.1319  2.13777
20.1509  1.81891
20.1699  1.68417
20.1889  1.44032
20.2079  1.31041
20.2269  1.21036
20.2459  1.12009
20.2649  0.829865
20.2839  0.476757
20.3029  0.280478
20.3219  0.144185
20.3409  0.317191
20.3599  0.503727
20.3789  0.425121
20.3979  0.265949
20.4169  0.30471
20.4359  0.325029
20.4549  0.206245
20.4739  0.0728534
20.493  0.0566205
20.512  0.0892314
20.531  0.269113
20.55  0.451723
20.569  0.566329
20.588  0.323418
20.607  0.0707365
20.626  0.0235002
20.645  0.256048
20.664  0.289732
20.683  0.092581
20.702  0.194831
20.721  0.395866
20.74  0.322861
20.759  0.331377
20.778  0.434589
20.797  0.310487
20.816  -0.0550115
20.835  -0.108458
20.854  -0.159998
20.873  -0.0671385
20.892  0.0113572
20.911  0.145748
20.93  0.165235
20.949  0.292959
20.968  0.464448
20.987  0.50612
21.006  0.415247
21.025  0.336146
21.044  0.465864
21.0631  0.521899
21.0821  0.449453
21.1011  0.534952
21.1201  0.53514
21.1391  0.587518
21.1581  0.453307
21.1771  0.461099
21.1961  0.292538
21.2151  0.271176
21.2341  0.344694
21.2531  0.482832
21.2721  0.403644
21.2911  0.338763
21.3101  0.0243738
21.3291  -0.16789
21.3481  -0.116225
21.3671  0.0342352
21.3861  0.267074
21.4051  0.262459
21.4241  0.107141
21.4431  -0.0511329
21.4621  0.101057
21.4811  0.0772036
21.5001  0.100291
21.5191  0.235474
21.5381  0.310393
21.5571  0.278914
21.5761  0.407589
21.5951  0.477818
21.6141  0.461937
21.6331  0.412077
21.6522  0.462773
21.6712  0.323426
21.6902  0.165467
21.7092  0.0677702
21.7282  -0.0617828
21.7472  -0.0382787
21.7662  0.143719
21.7852  0.225863
21.8042  0.190685
21.8232  -0.0677423
21.8422  -0.124899
21.8612  -0.0210452
21.8802  0.142933
21.8992  0.0948168
21.9182  -0.0370685
21.9372  0.0239142
21.9562  -0.105376
21.9752  -0.0356066
21.9942  -0.0598558
22.0132  0.181837
22.0322  -0.0719848