File: data/processed/Run2_XRD/12_ReMoB2_575psi_noRuby_S_P1_C1_D1w_079.dat
2.93393  0.326953
2.95294  0.230275
2.97194  0.666204
2.99094  0.774748
3.00995  0.957969
3.02895  0.760729
3.04795  0.809883
3.06696  0.507896
3.08596  0.670951
3.10496  1.51922
3.12397  1.43857
3.14297  1.12904
3.16197  0.731356
3.18098  0.64062
3.19998  0.526762
3.21898  0.521406
3.23799  0.077523
3.25699  0.165217
3.27599  0.419966
3.295  0.514017
3.314  1.1622
3.333  0.834274
3.35201  0.666634
3.37101  0.671192
3.39001  1.71252
3.40902  2.6773
3.42802  3.06648
3.44702  3.54374
3.46603  4.88179
3.48503  7.48406
3.50403  10.0109
3.52304  11.3959
3.54204  11.3997
3.56104  10.6233
3.58005  9.0602
3.59905  6.75258
3.61805  4.54749
3.63706  3.02754
3.65606  1.79399
3.67506  1.32236
3.69407  1.59273
3.71307  1.71993
3.73207  2.14062
3.75108  1.74385
3.77008  1.61627
3.78908  1.40618
3.80808  0.824432
3.82709  0.643708
3.84609  0.66291
3.86509  1.16911
3.8841  1.18923
3.9031  1.33231
3.9221  0.241776
3.94111  -0.000559711
3.96011  0.225056
3.97911  1.11378
3.99812  1.28371
4.01712  1.14172
4.03612  0.955678
4.05513  0.582638
4.07413  0.229405
4.09313  -0.0473011
4.11214  0.206907
4.13114  0.0330565
4.15014  -0.0764393
4.16915  -0.000275443
4.18815  0.511725
4.20715  0.711767
4.22616  1.21103
4.24516  1.21417
4.26416  1.3249
4.28317  1.14195
4.30217  0.967923
4.32117  0.965387
4.34018  0.852488
4.35918  1.28903
4.37818  1.61313
4.39719  1.54087
4.41619  1.32564
4.43519  1.1447
4.4542  0.645949
4.4732  0.185741
4.4922  0.26087
4.51121  0.120354
4.53021  -0.153821
4.54921  -0.0266449
4.56822  0.502329
4.58722  1.21904
4.60622  1.33817
4.62523  0.712397
4.64423  0.131647
4.66323  -0.0933562
4.68224  0.181963
4.70124  0.010485
4.72024  0.361437
4.73924  0.537106
4.75825  0.71097
4.77725  0.308763
4.79625  0.0978869
4.81526  0.238722
4.83426  0.78054
4.85326  0.970504
4.87227  1.08918
4.89127  0.712054
4.91027  0.693361
4.92928  0.328938
4.94828  -0.00283485
4.96728  0.00331549
4.98629  0.506997
5.00529  0.422502
5.02429  -0.145288
5.0433  -0.166448
5.0623  0.179521
5.0813  0.64229
5.10031  0.872918
5.11931  0.966133
5.13831  1.02168
5.15732  1.27068
5.17632  1.24806
5.19532  0.833819
5.21433  0.633063
5.23333  0.448997
5.25233  0.617494
5.27134  0.614178
5.29034  0.942763
5.30934  0.364304
5.32835  0.1508
5.34735  -0.117724
5.36635  0.284904
5.38536  0.529983
5.40436  0.761087
5.42336  0.70546
5.44237  0.201053
5.46137  0.143033
5.48037  0.115166
5.49938  0.150839
5.51838  -0.0595855
5.53738  0.0536402
5.55639  0.344876
5.57539  0.271195
5.59439  0.22858
5.6134  0.0838326
5.6324  0.300613
5.6514  0.767948
5.67041  0.822984
5.68941  0.406755
5.70841  0.190741
5.72741  0.561215
5.74642  0.790193
5.76542  0.85192
5.78442  0.892417
5.80343  1.43209
5.82243  1.80463
5.84143  1.95621
5.86044  2.08445
5.87944  2.54118
5.89844  2.65297
5.91745  2.35372
5.93645  2.10398
5.95545  1.96232
5.97446  2.14341
5.99346  1.80864
6.01246  1.58113
6.03147  1.17231
6.05047  0.981138
6.06947  0.731155
6.08848  0.287099
6.10748  0.074152
6.12648  -0.0685458
6.14549  -0.281984
6.16449  -0.135816
6.18349  0.21716
6.2025  0.117337
6.2215  -0.210342
6.2405  -0.137238
6.25951  0.320369
6.27851  0.825252
6.29751  0.847731
6.31652  0.644675
6.33552  0.950708
6.35452  1.23375
6.37353  1.28655
6.39253  1.45827
6.41153  1.92442
6.43054  3.3327
6.44954  4.66684
6.46854  6.28861
6.48755  6.60816
6.50655  6.30795
6.52555  5.84698
6.54456  5.61524
6.56356  5.43219
6.58256  4.16856
6.60157  2.92159
6.62057  1.82694
6.63957  1.42941
6.65857  1.57235
6.67758  1.54345
6.69658  1.97339
6.71558  2.95846
6.73459  4.4728
6.75359  6.45351
6.77259  9.21538
6.7916  12.2077
6.8106  14.9277
6.8296  17.5132
6.84861  18.7422
6.86761  18.7557
6.88661  17.3688
6.90562  15.9868
6.92462  14.9149
6.94362  14.9303
6.96263  16.5998
6.98163  19.8048
7.00063  24.8122
7.01964  30.8381
7.03864  37.749
7.05764  45.0177
7.07665  50.3505
7.09565  53.6254
7.11465  52.5414
7.13366  49.1473
7.15266  43.3824
7.17166  36.4526
7.19067  29.101
7.20967  22.7087
7.22867  17.7823
7.24768  13.9684
7.26668  11.2721
7.28568  8.7477
7.30469  6.59931
7.32369  5.48253
7.34269  4.67852
7.3617  4.21133
7.3807  3.29114
7.3997  2.42856
7.41871  2.28629
7.43771  2.39605
7.45671  2.13175
7.47572  1.39956
7.49472  1.18852
7.51372  0.877991
7.53273  0.657814
7.55173  0.422933
7.57073  0.335743
7.58973  0.346176
7.60874  0.348047
7.62774  0.285235
7.64674  -0.0280906
7.66575  -0.158662
7.68475  -0.0115075
7.70375  0.19928
7.72276  0.148055
7.74176  -0.179739
7.76076  -0.0972599
7.77977  0.0453235
7.79877  0.945525
7.81777  1.08203
7.83678  0.850664
7.85578  0.691648
7.87478  0.879302
7.89379  0.884421
7.91279  0.951151
7.93179  1.04725
7.9508  1.27647
7.9698  1.09212
7.9888  0.861854
8.00781  0.939132
8.02681  1.18018
8.04581  1.26948
8.06482  0.949083
8.08382  0.727894
8.10282  0.353351
8.12183  0.431256
8.14083  0.339467
8.15983  0.0540342
8.17884  0.021457
8.19784  -0.0180796
8.21684  0.249982
8.23585  0.38855
8.25485  0.322916
8.27385  0.18305
8.29286  0.0601522
8.31186  -0.0314069
8.33086  -0.104765
8.34987  -0.0948851
8.36887  -0.103352
8.38787  0.0222088
8.40688  0.181909
8.42588  0.530815
8.44488  0.351879
8.46389  0.209396
8.48289  -0.0599607
8.50189  0.208906
8.52089  0.692186
8.5399  1.02309
8.5589  1.01455
8.5779  0.662992
8.59691  0.23625
8.61591  0.180618
8.63491  0.364807
8.65392  0.30853
8.67292  0.195395
8.69192  -0.0131841
8.71093  -0.235073
8.72993  -0.128909
8.74893  0.248296
8.76794  0.261053
8.78694  -0.0562876
8.80594  -0.220351
8.82495  -0.0924769
8.84395  0.0277396
8.86295  -0.151028
8.88196  -0.431357
8.90096  -0.293667
8.91996  -0.0754833
8.93897  0.205473
8.95797  0.138196
8.97697  0.162732
8.99598  0.0355547
9.01498  0.130328
9.03398  0.201821
9.05299  0.717463
9.07199  1.25318
9.09099  2.04886
9.11  2.65341
9.129  4.1205
9.148  5.98191
9.16701  8.73612
9.18601  11.5831
9.20501  15.7011
9.22402  22.1098
9.24302  31.2923
9.26202  42.7215
9.28103  57.5234
9.30003  76.0028
9.31903  97.93
9.33804  120.292
9.35704  142.406
9.37604  161.575
9.39505  176.152
9.41405  185.755
9.43305  190.856
9.45206  192.204
9.47106  191.85
9.49006  190.139
9.50906  187.831
9.52807  187.065
9.54707  188.514
9.56607  195.427
9.58508  204.535
9.60408  216.995
9.62308  229.863
9.64209  243.5
9.66109  253.978
9.68009  262.269
9.6991  264.792
9.7181  263.617
9.7371  257.761
9.75611  244.959
9.77511  226.993
9.79411  204.407
9.81312  182.187
9.83212  161.414
9.85112  140.989
9.87013  123.714
9.88913  108.04
9.90813  93.225
9.92714  79.9022
9.94614  67.6697
9.96514  57.3131
9.98415  48.1402
10.0031  40.0717
10.0222  33.2008
10.0412  27.208
10.0602  21.8064
10.0792  17.3693
10.0982  13.3156
10.1172  10.4115
10.1362  8.06481
10.1552  5.88072
10.1742  3.81456
10.1932  1.89519
10.2122  0.842834
10.2312  0.11128
10.2502  -0.434542
10.2692  -0.921612
10.2882  -1.07268
10.3072  0.0273557
10.3262  0.928812
10.3452  2.62856
10.3642  4.5337
10.3832  7.51327
10.4022  10.4596
10.4212  13.8592
10.4402  16.8277
10.4592  19.5839
10.4782  20.3348
10.4972  20.4143
10.5162  18.0821
10.5352  16.0058
10.5542  12.8429
10.5732  10.7763
10.5923  7.57537
10.6113  6.33165
10.6303  5.5127
10.6493  6.05779
10.6683  6.19976
10.6873  6.81494
10.7063  7.286
10.7253  8.6267
10.7443  10.1553
10.7633  10.9497
10.7823  12.1227
10.8013  12.925
10.8203  14.4076
10.8393  15.3119
10.8583  15.6917
10.8773  15.6883
10.8963  15.4617
10.9153  14.5261
10.9343  14.4095
10.9533  13.8356
10.9723  12.8647
10.9913  12.2421
11.0103  11.9576
11.0293  12.6962
11.0483  12.8579
11.0673  12.8775
11.0863  12.997
11.1053  13.5083
11.1243  14.3173
11.1433  15.2372
11.1623  15.6148
11.1814  15.7384
11.2004  16.4076
11.2194  17.4128
11.2384  17.7838
11.2574  17.4528
11.2764  16.9835
11.2954  16.4417
11.3144  15.9132
11.3334  14.6853
11.3524  13.6223
11.3714  12.5806
11.3904  11.4199
11.4094  10.3678
11.4284  9.51038
11.4474  9.21904
11.4664  8.66995
11.4854  7.89859
11.5044  6.88608
11.5234  5.77966
11.5424  5.23195
11.5614  4.49383
11.5804  3.87358
11.5994  3.2998
11.6184  2.53056
11.6374  1.93695
11.6564  1.00345
11.6754  0.188339
11.6944  -0.463109
11.7134  -0.953565
11.7324  -0.823015
11.7515  -0.606316
11.7705  -0.555657
11.7895  -0.926183
11.8085  -0.852996
11.8275  -0.456583
11.8465  0.22869
11.8655  0.626951
11.8845  1.14226
11.9035  1.41816
11.9225  1.69545
11.9415  2.23705
11.9605  3.50859
11.9795  4.79509
11.9985  6.15252
12.0175  8.30022
12.0365  11.2921
12.0555  15.4831
12.0745  20.8738
12.0935  27.5347
12.1125  36.9042
12.1315  49.0378
12.1505  64.6261
12.1695  84.6431
12.1885  106.38
12.2075  133.886
12.2265  162.429
12.2455  190.55
12.2645  218.486
12.2835  235.4
12.3025  239.322
12.3215  230.799
12.3406  212.832
12.3596  188.008
12.3786  162.81
12.3976  136.218
12.4166  111.048
12.4356  91.1043
12.4546  74.5949
12.4736  62.7984
12.4926  54.1193
12.5116  47.7301
12.5306  43.2933
12.5496  39.9442
12.5686  37.8495
12.5876  36.4636
12.6066  35.9313
12.6256  35.6241
12.6446  36.1118
12.6636  36.982
12.6826  38.5075
12.7016  40.8004
12.7206  43.1626
12.7396  45.8405
12.7586  47.8573
12.7776  49.836
12.7966  50.6587
12.8156  51.4672
12.8346  50.5515
12.8536  49.3625
12.8726  46.8255
12.8916  44.2254
12.9106  40.5518
12.9297  37.1865
12.9487  33.646
12.9677  30.5284
12.9867  28.207
13.0057  26.1324
13.0247  23.8955
13.0437  21.6854
13.0627  19.5835
13.0817  18.4653
13.1007  16.9912
13.1197  16.3862
13.1387  15.604
13.1577  15.0708
13.1767  14.8499
13.1957  14.651
13.2147  14.3123
13.2337  13.7652
13.2527  13.5236
13.2717  13.6141
13.2907  13.5599
13.3097  13.5205
13.3287  13.9088
13.3477  13.7836
13.3667  13.7776
13.3857  13.3631
13.4047  13.1301
13.4237  13.0439
13.4427  12.7738
13.4617  12.7675
13.4807  12.3913
13.4998  12.1966
13.5188  11.7248
13.5378  11.5846
13.5568  11.0933
13.5758  10.9369
13.5948  11.0037
13.6138  10.7832
13.6328  10.6603
13.6518  9.81099
13.6708  9.42026
13.6898  8.83082
13.7088  7.9094
13.7278  6.53023
13.7468  4.908
13.7658  3.75452
13.7848  2.88981
13.8038  2.04422
13.8228  0.926112
13.8418  0.414016
13.8608  0.351168
13.8798  0.426674
13.8988  0.635761
13.9178  0.788396
13.9368  1.44917
13.9558  2.56389
13.9748  3.56349
13.9938  4.27006
14.0128  4.40854
14.0318  5.10021
14.0508  5.59979
14.0698  6.1396
14.0889  6.34985
14.1079  6.53067
14.1269  6.82307
14.1459  7.43351
14.1649  7.45383
14.1839  7.58693
14.2029  6.74529
14.2219  6.7674
14.2409  6.90162
14.2599  7.02346
14.2789  6.57963
14.2979  6.00458
14.3169  5.74648
14.3359  5.59841
14.3549  5.1201
14.3739  4.44978
14.3929  4.02554
14.4119  3.52018
14.4309  2.71214
14.4499  1.84207
14.4689  1.17332
14.4879  0.426321
14.5069  -0.0800255
14.5259  -0.311094
14.5449  -0.425124
14.5639  -0.652456
14.5829  -0.734541
14.6019  -0.63398
14.6209  -0.610113
14.6399  -0.659828
14.6589  -0.473574
14.678  -0.206306
14.697  -0.157835
14.716  -0.357188
14.735  -0.435491
14.754  -0.339213
14.773  0.0158609
14.792  0.503412
14.811  0.516801
14.83  0.487692
14.849  0.262504
14.868  0.396597
14.887  0.408265
14.906  0.414787
14.925  0.291887
14.944  0.468689
14.963  0.328604
14.982  0.148389
15.001  0.0258894
15.02  -0.0704797
15.039  0.305627
15.058  0.581351
15.077  0.697535
15.096  0.755472
15.115  0.570468
15.134  0.603015
15.153  0.370355
15.172  0.509185
15.191  0.3195
15.21  0.427958
15.229  0.6001
15.2481  0.802146
15.2671  0.677193
15.2861  0.519102
15.3051  0.145178
15.3241  0.111122
15.3431  0.406706
15.3621  0.575496
15.3811  0.561847
15.4001  0.584855
15.4191  0.737338
15.4381  0.717662
15.4571  0.496387
15.4761  0.25193
15.4951  0.363508
15.5141  0.704605
15.5331  0.557589
15.5521  0.22713
15.5711  0.00542756
15.5901  0.0408637
15.6091  0.0869671
15.6281  -0.0106774
15.6471  0.0772972
15.6661  -0.13671
15.6851  -0.0692337
15.7041  0.302376
15.7231  0.574327
15.7421  0.89348
15.7611  1.00324
15.7801  1.26742
15.7991  1.30194
15.8181  1.46734
15.8372  1.36424
15.8562  1.51208
15.8752  1.66944
15.8942  2.11306
15.9132  2.53171
15.9322  2.87502
15.9512  3.21495
15.9702  3.30445
15.9892  3.93099
16.0082  4.67144
16.0272  5.19788
16.0462  5.49952
16.0652  6.42873
16.0842  7.63105
16.1032  8.59878
16.1222  9.56247
16.1412  10.5005
16.1602  11.2153
16.1792  12.2357
16.1982  13.3662
16.2172  14.5309
16.2362  15.6261
16.2552  16.8832
16.2742  18.2252
16.2932  19.3848
16.3122  20.3737
16.3312  21.4881
16.3502  22.3338
16.3692  22.9198
16.3882  23.3623
16.4073  24.4285
16.4263  25.4395
16.4453  26.1824
16.4643  26.2511
16.4833  26.4748
16.5023  26.5338
16.5213  26.5037
16.5403  26.5866
16.5593  26.8142
16.5783  26.7257
16.5973  26.3985
16.6163  25.9076
16.6353  25.4567
16.6543  24.9202
16.6733  24.4835
16.6923  23.6954
16.7113  22.9727
16.7303  21.9623
16.7493  20.9907
16.7683  19.3736
16.7873  17.5559
16.8063  15.6087
16.8253  13.9894
16.8443  12.3265
16.8633  10.7936
16.8823  9.5092
16.9013  8.19856
16.9203  7.35473
16.9393  6.45149
16.9583  5.6118
16.9773  4.82325
16.9964  4.20418
17.0154  3.66374
17.0344  3.29991
17.0534  2.88058
17.0724  2.65321
17.0914  2.7256
17.1104  2.84129
17.1294  2.86036
17.1484  2.5137
17.1674  2.48618
17.1864  2.16185
17.2054  2.00227
17.2244  2.06057
17.2434  2.44867
17.2624  2.76134
17.2814  2.75984
17.3004  2.55653
17.3194  2.51686
17.3384  2.4059
17.3574  2.23847
17.3764  1.92214
17.3954  2.00802
17.4144  2.16857
17.4334  2.12486
17.4524  1.92742
17.4714  2.33104
17.4904  2.67872
17.5094  2.70914
17.5284  2.66636
17.5474  2.44019
17.5664  2.49185
17.5855  2.93375
17.6045  3.59704
17.6235  3.73108
17.6425  3.68502
17.6615  3.92008
17.6805  4.34772
17.6995  4.46217
17.7185  4.91709
17.7375  5.48028
17.7565  6.32294
17.7755  6.98451
17.7945  7.47203
17.8135  7.98308
17.8325  8.96237
17.8515  9.97085
17.8705  10.867
17.8895  11.8791
17.9085  13.4109
17.9275  15.0348
17.9465  16.8384
17.9655  18.5847
17.9845  20.7442
18.0035  23.0733
18.0225  26.0677
18.0415  29.1672
18.0605  32.7182
18.0795  36.5311
18.0985  40.382
18.1175  43.9974
18.1365  47.5548
18.1556  51.4045
18.1746  55.0239
18.1936  57.627
18.2126  58.7775
18.2316  59.1483
18.2506  58.4178
18.2696  56.9084
18.2886  54.4399
18.3076  51.3278
18.3266  48.071
18.3456  44.8809
18.3646  41.5642
18.3836  37.9708
18.4026  34.366
18.4216  30.9852
18.4406  27.9027
18.4596  25.1437
18.4786  22.3153
18.4976  19.5063
18.5166  16.908
18.5356  14.7417
18.5546  12.7935
18.5736  11.0208
18.5926  9.31641
18.6116  7.65023
18.6306  6.27706
18.6496  5.27546
18.6686  4.47042
18.6876  3.69113
18.7066  2.96962
18.7256  2.36888
18.7447  1.87316
18.7637  1.71838
18.7827  1.20613
18.8017  0.766588
18.8207  0.332279
18.8397  0.616004
18.8587  0.594523
18.8777  0.414457
18.8967  0.0111867
18.9157  -0.319174
18.9347  -0.453248
18.9537  -0.17875
18.9727  0.140072
18.9917  0.120098
19.0107  -0.0740547
19.0297  -0.0741696
19.0487  0.0671546
19.0677  0.235812
19.0867  0.559733
19.1057  0.980502
19.1247  1.1172
19.1437  1.29536
19.1627  1.43499
19.1817  1.39055
19.2007  1.12977
19.2197  1.2421
19.2387  1.6044
19.2577  1.65864
19.2767  1.61918
19.2957  1.74182
19.3148  1.73728
19.3338  1.63674
19.3528  1.5239
19.3718  1.43885
19.3908  1.22023
19.4098  1.08589
19.4288  0.854166
19.4478  0.59978
19.4668  0.379921
19.4858  0.169142
19.5048  0.0882966
19.5238  0.0207973
19.5428  -0.181846
19.5618  -0.414574
19.5808  -0.614796
19.5998  -0.40076
19.6188  -0.296308
19.6378  -0.159577
19.6568  -0.106205
19.6758  -0.222432
19.6948  -0.264119
19.7138  -0.299502
19.7328  -0.00764213
19.7518  0.0609064
19.7708  0.0116633
19.7898  0.194325
19.8088  0.359313
19.8278  0.289751
19.8468  0.264489
19.8658  0.379414
19.8848  0.766474
19.9039  1.10092
19.9229  1.06068
19.9419  1.03337
19.9609  0.781727
19.9799  0.837918
19.9989  1.05856
20.0179  1.46788
20.0369  1.70353
20.0559  1.85844
20.0749  1.81694
20.0939  1.65136
20.1129  1.62013
20.1319  1.80733
20.1509  2.09373
20.1699  2.31791
20.1889  2.27531
20.2079  2.18885
20.2269  2.35868
20.2459  2.42917
20.2649  2.68863
20.2839  2.6338
20.3029  2.46315
20.3219  2.10712
20.3409  1.97309
20.3599  1.9794
20.3789  2.20075
20.3979  2.20589
20.4169  2.10532
20.4359  2.08476
20.4549  1.9943
20.4739  1.82874
20.493  1.86954
20.512  1.9984
20.531  1.85832
20.55  1.83994
20.569  1.59315
20.588  1.56334
20.607  1.33353
20.626  1.29836
20.645  1.09478
20.664  1.08072
20.683  0.923422
20.702  0.940673
20.721  0.716509
20.74  0.451322
20.759  0.0405955
20.778  -0.0131485
20.797  0.115044
20.816  0.191086
20.835  0.189075
20.854  0.23657
20.873  0.125646
20.892  0.206746
20.911  0.345204
20.93  0.51638
20.949  0.530864
20.968  0.632609
20.987  0.82511
21.006  0.899447
21.025  0.797713
21.044  0.601094
21.0631  0.772708
21.0821  0.604244
21.1011  0.302586
21.1201  0.0314547
21.1391  -0.0047782
21.1581  0.107347
21.1771  0.265495
21.1961  0.277044
21.2151  0.19909
21.2341  0.234533
21.2531  0.246676
21.2721  0.234474
21.2911  0.257833
21.3101  0.349912
21.3291  0.383062
21.3481  0.158559
21.3671  -0.0442594
21.3861  0.168274
21.4051  0.133747
21.4241  -0.0152317
21.4431  -0.0599454
21.4621  0.014034
21.4811  0.00303944
21.5001  -0.0789922
21.5191  0.120492
21.5381  0.277084
21.5571  0.440129
21.5761  0.287792
21.5951  0.118179
21.6141  0.0135228
21.6331  0.212084
21.6522  0.252118
21.6712  0.175846
21.6902  -0.0111678
21.7092  -0.0484956
21.7282  -0.0948622
21.7472  -0.21276
21.7662  -0.231875
21.7852  -0.00636132
21.8042  0.0834056
21.8232  0.232101
21.8422  0.182534
21.8612  0.199634
21.8802  0.0575343
21.8992  -0.0640157
21.9182  -0.168376
21.9372  -0.062297
21.9562  -0.104574
21.9752  -0.0629119
21.9942  0.0440771
22.0132  0.264974
22.0322  -0.144239