File: data/processed/Run2_XRD/13_ReMoB2_605psi_noRuby_S_P1_C1_D1w_085.dat
2.93393  0.444067
2.95294  0.510948
2.97194  0.65007
2.99094  0.582797
3.00995  0.420141
3.02895  0.340525
3.04795  -0.0788419
3.06696  0.216211
3.08596  0.0556609
3.10496  0.0281522
3.12397  0.237125
3.14297  0.731136
3.16197  0.471743
3.18098  0.204607
3.19998  -0.0730968
3.21898  -0.114027
3.23799  0.138074
3.25699  0.655985
3.27599  0.872116
3.295  1.36441
3.314  0.956036
3.333  1.21477
3.35201  1.40696
3.37101  2.09558
3.39001  2.18442
3.40902  2.41721
3.42802  2.06233
3.44702  2.49847
3.46603  3.09717
3.48503  4.81374
3.50403  6.72521
3.52304  8.63059
3.54204  9.81773
3.56104  9.63474
3.58005  8.5354
3.59905  7.12409
3.61805  5.49865
3.63706  4.07766
3.65606  2.86551
3.67506  1.83445
3.69407  1.3532
3.71307  0.924126
3.73207  0.704727
3.75108  0.460654
3.77008  0.906333
3.78908  1.6206
3.80808  1.84376
3.82709  1.46158
3.84609  1.19102
3.86509  0.871147
3.8841  0.61142
3.9031  0.500263
3.9221  0.97802
3.94111  1.34793
3.96011  1.74375
3.97911  1.65441
3.99812  1.16489
4.01712  0.849594
4.03612  0.807473
4.05513  1.22293
4.07413  1.13529
4.09313  0.564072
4.11214  0.29515
4.13114  -0.26978
4.15014  0.0202144
4.16915  0.152446
4.18815  0.344415
4.20715  0.258888
4.22616  0.481725
4.24516  1.05035
4.26416  1.12137
4.28317  0.758553
4.30217  -0.00516996
4.32117  0.139328
4.34018  0.243668
4.35918  0.951655
4.37818  0.652751
4.39719  0.445791
4.41619  0.380767
4.43519  0.572705
4.4542  0.813153
4.4732  0.76633
4.4922  1.1684
4.51121  1.56637
4.53021  1.38593
4.54921  0.983023
4.56822  0.412062
4.58722  0.231884
4.60622  0.257067
4.62523  0.413395
4.64423  0.445321
4.66323  0.615693
4.68224  0.429879
4.70124  0.374558
4.72024  0.432414
4.73924  0.655203
4.75825  0.409983
4.77725  0.110778
4.79625  -0.141162
4.81526  -0.200832
4.83426  -0.0330772
4.85326  0.119496
4.87227  0.391848
4.89127  0.776389
4.91027  0.755701
4.92928  1.14845
4.94828  1.32144
4.96728  1.13459
4.98629  0.906742
5.00529  0.362628
5.02429  -0.0995359
5.0433  0.187077
5.0623  0.422941
5.0813  0.699786
5.10031  0.912236
5.11931  0.699267
5.13831  0.123235
5.15732  0.254352
5.17632  0.183694
5.19532  0.619833
5.21433  0.795617
5.23333  1.40493
5.25233  1.67134
5.27134  1.23269
5.29034  0.981454
5.30934  0.613377
5.32835  -0.0303817
5.34735  -0.252762
5.36635  0.0101875
5.38536  0.441472
5.40436  0.440277
5.42336  0.682158
5.44237  0.895768
5.46137  1.16545
5.48037  0.853312
5.49938  0.636797
5.51838  0.339376
5.53738  0.688217
5.55639  1.12337
5.57539  1.25146
5.59439  0.948455
5.6134  0.685838
5.6324  -0.000924963
5.6514  0.0886756
5.67041  0.633552
5.68941  1.09756
5.70841  1.32027
5.72741  1.29973
5.74642  2.00723
5.76542  2.68819
5.78442  2.99807
5.80343  3.24195
5.82243  4.32662
5.84143  5.66458
5.86044  6.08728
5.87944  6.55453
5.89844  6.89644
5.91745  6.53054
5.93645  5.37923
5.95545  4.14014
5.97446  3.29075
5.99346  2.7295
6.01246  2.53863
6.03147  1.90303
6.05047  1.80095
6.06947  1.42251
6.08848  1.33951
6.10748  0.717409
6.12648  0.478883
6.14549  0.504518
6.16449  0.623062
6.18349  0.369531
6.2025  -0.20553
6.2215  -0.330958
6.2405  -0.225222
6.25951  -0.0649664
6.27851  -0.100884
6.29751  0.135657
6.31652  0.436224
6.33552  0.580353
6.35452  0.828575
6.37353  0.690251
6.39253  0.713217
6.41153  0.841309
6.43054  1.52311
6.44954  2.18398
6.46854  3.06496
6.48755  4.58822
6.50655  6.59975
6.52555  8.06295
6.54456  8.61713
6.56356  7.993
6.58256  6.34578
6.60157  3.69787
6.62057  2.1066
6.63957  1.06594
6.65857  0.946665
6.67758  0.885545
6.69658  1.03609
6.71558  1.4418
6.73459  1.98482
6.75359  2.98426
6.77259  4.27983
6.7916  5.88212
6.8106  7.99297
6.8296  10.7256
6.84861  13.3025
6.86761  15.0965
6.88661  15.343
6.90562  14.8517
6.92462  13.6299
6.94362  12.9013
6.96263  12.4796
6.98163  12.9492
7.00063  14.7778
7.01964  18.0644
7.03864  23.6239
7.05764  29.976
7.07665  37.7665
7.09565  44.5685
7.11465  48.7928
7.13366  50.6179
7.15266  48.3263
7.17166  42.823
7.19067  35.3233
7.20967  28.4388
7.22867  21.867
7.24768  17.0204
7.26668  13.2241
7.28568  10.566
7.30469  8.63444
7.32369  6.98792
7.34269  5.62052
7.3617  4.91912
7.3807  4.01975
7.3997  3.49248
7.41871  3.44563
7.43771  3.22161
7.45671  2.36522
7.47572  1.09827
7.49472  0.62843
7.51372  0.94123
7.53273  1.25169
7.55173  1.23512
7.57073  0.833797
7.58973  0.850892
7.60874  0.799938
7.62774  0.753546
7.64674  0.424503
7.66575  0.472347
7.68475  0.686251
7.70375  0.502944
7.72276  0.0507304
7.74176  -0.186021
7.76076  0.0626919
7.77977  0.333992
7.79877  0.680799
7.81777  0.734766
7.83678  0.777144
7.85578  0.582745
7.87478  0.821578
7.89379  0.537353
7.91279  0.756376
7.93179  1.04666
7.9508  1.08216
7.9698  0.836275
7.9888  0.650642
8.00781  0.724539
8.02681  0.921982
8.04581  1.03323
8.06482  0.7136
8.08382  0.321537
8.10282  0.116401
8.12183  -0.031666
8.14083  0.25039
8.15983  0.511472
8.17884  0.635847
8.19784  0.339131
8.21684  -0.0774234
8.23585  -0.29741
8.25485  0.233129
8.27385  0.580772
8.29286  0.742244
8.31186  0.372325
8.33086  0.340471
8.34987  0.538621
8.36887  0.504822
8.38787  0.343491
8.40688  0.406124
8.42588  0.280132
8.44488  0.0935898
8.46389  -0.121187
8.48289  -0.135234
8.50189  0.0083414
8.52089  -0.0450431
8.5399  0.306225
8.5589  0.919763
8.5779  0.99242
8.59691  0.856788
8.61591  0.620656
8.63491  0.300061
8.65392  -0.00357507
8.67292  -0.206572
8.69192  -0.0751548
8.71093  -0.0383342
8.72993  0.237347
8.74893  0.206015
8.76794  0.443631
8.78694  0.178797
8.80594  -0.0535196
8.82495  0.0703715
8.84395  0.117876
8.86295  0.192044
8.88196  0.0735874
8.90096  0.168616
8.91996  0.308765
8.93897  0.128249
8.95797  -0.186864
8.97697  -0.215282
8.99598  0.0584629
9.01498  0.548816
9.03398  1.39644
9.05299  1.8213
9.07199  2.20585
9.09099  2.96284
9.11  4.1337
9.129  5.62143
9.148  7.3106
9.16701  9.90402
9.18601  13.4209
9.20501  18.181
9.22402  24.2667
9.24302  33.1672
9.26202  45.0756
9.28103  61.9995
9.30003  82.7848
9.31903  108.921
9.33804  136.874
9.35704  165.636
9.37604  191.663
9.39505  212.858
9.41405  229.268
9.43305  238.274
9.45206  241.098
9.47106  238.615
9.49006  231.275
9.50906  220.695
9.52807  208.127
9.54707  195.265
9.56607  184.722
9.58508  175.249
9.60408  168.799
9.62308  164.171
9.64209  162.454
9.66109  162.492
9.68009  163.147
9.6991  164.587
9.7181  164.761
9.7371  165.29
9.75611  161.139
9.77511  156.448
9.79411  148.562
9.81312  138.526
9.83212  128.529
9.85112  116.666
9.87013  106.375
9.88913  96.8489
9.90813  86.1534
9.92714  77.0196
9.94614  67.9921
9.96514  60.0875
9.98415  52.8052
10.0031  46.0412
10.0222  40.0272
10.0412  34.6222
10.0602  29.3681
10.0792  24.7783
10.0982  20.3519
10.1172  16.9701
10.1362  13.6447
10.1552  10.7883
10.1742  8.08825
10.1932  5.74762
10.2122  4.16852
10.2312  2.46291
10.2502  1.39229
10.2692  0.066251
10.2882  -0.878895
10.3072  -1.0942
10.3262  -1.09102
10.3452  -0.573681
10.3642  -0.0432739
10.3832  0.883487
10.4022  2.06837
10.4212  3.79115
10.4402  6.08724
10.4592  8.42546
10.4782  10.5079
10.4972  12.5203
10.5162  13.748
10.5352  14.0541
10.5542  13.5553
10.5732  12.0942
10.5923  10.4523
10.6113  8.31229
10.6303  6.68854
10.6493  5.28611
10.6683  4.65573
10.6873  4.19084
10.7063  4.52499
10.7253  4.88832
10.7443  5.6514
10.7633  6.37612
10.7823  7.69714
10.8013  9.31619
10.8203  10.6715
10.8393  11.7144
10.8583  12.5531
10.8773  13.8399
10.8963  14.9093
10.9153  15.6378
10.9343  14.9332
10.9533  13.9848
10.9723  12.8515
10.9913  12.3574
11.0103  10.8204
11.0293  9.48376
11.0483  8.28816
11.0673  7.50549
11.0863  6.97215
11.1053  6.47508
11.1243  6.61445
11.1433  7.17615
11.1623  7.30335
11.1814  6.7902
11.2004  6.51585
11.2194  6.80604
11.2384  7.11649
11.2574  7.52287
11.2764  7.66109
11.2954  7.9502
11.3144  7.89327
11.3334  7.54675
11.3524  7.37478
11.3714  6.78877
11.3904  6.15323
11.4094  5.39512
11.4284  4.89997
11.4474  4.70651
11.4664  4.2203
11.4854  3.98978
11.5044  3.67125
11.5234  3.42598
11.5424  3.39359
11.5614  3.49151
11.5804  3.63377
11.5994  3.17901
11.6184  2.80907
11.6374  2.33717
11.6564  1.84495
11.6754  1.54473
11.6944  1.17102
11.7134  0.636748
11.7324  -0.286368
11.7515  -0.472753
11.7705  -0.382624
11.7895  -0.64905
11.8085  -1.02094
11.8275  -0.862711
11.8465  -0.452841
11.8655  0.154373
11.8845  0.831789
11.9035  1.76978
11.9225  2.56702
11.9415  3.12163
11.9605  4.00458
11.9795  5.05205
11.9985  6.67639
12.0175  8.26769
12.0365  10.1826
12.0555  12.7925
12.0745  16.669
12.0935  21.2738
12.1125  27.8019
12.1315  36.0168
12.1505  46.9649
12.1695  60.4185
12.1885  76.8386
12.2075  97.3961
12.2265  123.039
12.2455  153.174
12.2645  190.313
12.2835  230.995
12.3025  276.198
12.3215  313.694
12.3406  342.179
12.3596  349.891
12.3786  339.94
12.3976  312.603
12.4166  277.183
12.4356  238.229
12.4546  198.663
12.4736  164.318
12.4926  134.02
12.5116  109.334
12.5306  90.2111
12.5496  75.5347
12.5686  64.3658
12.5876  56.3787
12.6066  50.2656
12.6256  46.0434
12.6446  42.5905
12.6636  39.9995
12.6826  37.8526
12.7016  36.6709
12.7206  35.6699
12.7396  34.914
12.7586  34.6561
12.7776  34.9273
12.7966  35.4433
12.8156  35.5533
12.8346  35.4308
12.8536  35.3266
12.8726  34.8767
12.8916  34.331
12.9106  33.2418
12.9297  31.6083
12.9487  28.8808
12.9677  26.019
12.9867  23.7635
13.0057  21.8834
13.0247  20.1537
13.0437  18.4288
13.0627  16.5114
13.0817  14.9608
13.1007  13.8605
13.1197  13.3437
13.1387  12.5938
13.1577  11.9003
13.1767  10.9931
13.1957  10.3684
13.2147  9.91411
13.2337  9.18018
13.2527  8.75606
13.2717  8.4837
13.2907  9.0624
13.3097  9.27175
13.3287  9.33696
13.3477  8.9981
13.3667  8.66747
13.3857  8.5146
13.4047  8.32911
13.4237  8.37659
13.4427  8.41089
13.4617  8.67748
13.4807  8.58711
13.4998  8.53163
13.5188  8.03766
13.5378  7.36751
13.5568  7.18875
13.5758  6.85518
13.5948  6.7262
13.6138  6.20553
13.6328  5.81695
13.6518  5.37517
13.6708  5.01165
13.6898  5.17089
13.7088  4.5225
13.7278  3.91841
13.7468  3.00473
13.7658  2.44743
13.7848  1.80913
13.8038  0.999098
13.8228  0.402189
13.8418  -0.253347
13.8608  -0.14731
13.8798  -0.418875
13.8988  -0.165694
13.9178  -0.319523
13.9368  -0.380934
13.9558  -0.139162
13.9748  0.811747
13.9938  2.05621
14.0128  2.68589
14.0318  3.26441
14.0508  4.14837
14.0698  4.65079
14.0889  5.14904
14.1079  5.39411
14.1269  5.89012
14.1459  6.26331
14.1649  6.35355
14.1839  6.17047
14.2029  6.12445
14.2219  6.0372
14.2409  6.44384
14.2599  6.7767
14.2789  7.24055
14.2979  8.10174
14.3169  9.12074
14.3359  9.71152
14.3549  9.7815
14.3739  9.61313
14.3929  9.45595
14.4119  9.22605
14.4309  8.82999
14.4499  7.68855
14.4689  6.17732
14.4879  4.71039
14.5069  3.49855
14.5259  2.38343
14.5449  1.50736
14.5639  0.964826
14.5829  0.587803
14.6019  0.139453
14.6209  -0.2116
14.6399  -0.139297
14.6589  -0.272907
14.678  -0.750231
14.697  -0.721147
14.716  -0.410985
14.735  -0.316213
14.754  -0.359539
14.773  -0.477588
14.792  -0.474796
14.811  -0.10711
14.83  0.203218
14.849  0.0571136
14.868  -0.0666165
14.887  -0.136554
14.906  0.227196
14.925  0.278868
14.944  0.327197
14.963  0.1563
14.982  0.0556237
15.001  -0.196606
15.02  -0.327136
15.039  -0.0380337
15.058  0.160571
15.077  0.347525
15.096  0.334441
15.115  0.487359
15.134  0.635429
15.153  0.627767
15.172  0.701675
15.191  0.775094
15.21  0.751298
15.229  0.798088
15.2481  1.09774
15.2671  1.14009
15.2861  1.31927
15.3051  1.09204
15.3241  1.18074
15.3431  1.03871
15.3621  1.22755
15.3811  0.850453
15.4001  0.987149
15.4191  0.946827
15.4381  0.902919
15.4571  0.589338
15.4761  0.687751
15.4951  1.02089
15.5141  1.42056
15.5331  1.38332
15.5521  0.681514
15.5711  0.359874
15.5901  0.141539
15.6091  0.364959
15.6281  0.0847287
15.6471  0.290408
15.6661  -0.0386324
15.6851  -0.0443264
15.7041  -0.321683
15.7231  -0.0436149
15.7421  -0.0066571
15.7611  0.0963032
15.7801  -0.12709
15.7991  0.0564908
15.8181  0.517347
15.8372  0.731065
15.8562  0.68959
15.8752  0.541864
15.8942  0.991948
15.9132  1.50276
15.9322  1.64368
15.9512  1.79713
15.9702  2.20699
15.9892  3.02973
16.0082  3.69709
16.0272  4.23491
16.0462  4.44252
16.0652  4.92851
16.0842  5.6941
16.1032  6.77069
16.1222  8.29454
16.1412  9.87231
16.1602  11.208
16.1792  12.3673
16.1982  13.7278
16.2172  15.6694
16.2362  17.7956
16.2552  19.5592
16.2742  21.5671
16.2932  23.1017
16.3122  24.7245
16.3312  26.5473
16.3502  28.071
16.3692  29.5223
16.3882  31.0382
16.4073  32.1409
16.4263  34.0768
16.4453  35.4027
16.4643  36.377
16.4833  37.6435
16.5023  38.0029
16.5213  38.0966
16.5403  37.3335
16.5593  36.5934
16.5783  34.987
16.5973  33.1221
16.6163  31.9335
16.6353  30.5147
16.6543  29.1158
16.6733  27.904
16.6923  26.4789
16.7113  25.9092
16.7303  25.6232
16.7493  25.2625
16.7683  24.762
16.7873  24.0271
16.8063  23.0649
16.8253  21.86
16.8443  20.8132
16.8633  19.1336
16.8823  17.7641
16.9013  15.9434
16.9203  14.4059
16.9393  12.4977
16.9583  11.0941
16.9773  9.64732
16.9964  8.62346
17.0154  7.59672
17.0344  6.99615
17.0534  5.79686
17.0724  4.78948
17.0914  4.00793
17.1104  3.69612
17.1294  3.65732
17.1484  3.71455
17.1674  3.56879
17.1864  3.04192
17.2054  2.89184
17.2244  3.09281
17.2434  3.61652
17.2624  3.57507
17.2814  3.4439
17.3004  2.91054
17.3194  2.78556
17.3384  2.70953
17.3574  3.36296
17.3764  3.39686
17.3954  3.40199
17.4144  2.92916
17.4334  2.70159
17.4524  2.74278
17.4714  2.73116
17.4904  2.41198
17.5094  2.13022
17.5284  2.19575
17.5474  2.21414
17.5664  1.99394
17.5855  1.84349
17.6045  1.95191
17.6235  2.24672
17.6425  2.2333
17.6615  2.34413
17.6805  2.55318
17.6995  3.07565
17.7185  3.36795
17.7375  3.89048
17.7565  4.27644
17.7755  4.75149
17.7945  5.15824
17.8135  5.45702
17.8325  6.25572
17.8515  7.01762
17.8705  7.86703
17.8895  8.47942
17.9085  9.3244
17.9275  10.3339
17.9465  11.7893
17.9655  13.2814
17.9845  14.8383
18.0035  16.7515
18.0225  18.741
18.0415  21.1297
18.0605  23.8762
18.0795  26.9291
18.0985  30.1655
18.1175  33.6294
18.1365  37.2939
18.1556  41.4653
18.1746  45.5749
18.1936  49.8083
18.2126  53.3612
18.2316  56.4899
18.2506  58.5686
18.2696  60.3243
18.2886  60.8654
18.3076  60.587
18.3266  59.5817
18.3456  57.8337
18.3646  55.5193
18.3836  52.8324
18.4026  50.0392
18.4216  46.9272
18.4406  43.2371
18.4596  39.7815
18.4786  36.1713
18.4976  32.6794
18.5166  29.0085
18.5356  25.7551
18.5546  22.7583
18.5736  19.91
18.5926  16.7889
18.6116  14.1285
18.6306  11.9075
18.6496  10.2295
18.6686  8.85404
18.6876  7.72264
18.7066  6.56726
18.7256  5.3871
18.7447  4.3513
18.7637  3.50203
18.7827  2.76403
18.8017  2.20511
18.8207  1.75281
18.8397  1.56325
18.8587  1.36503
18.8777  1.15613
18.8967  0.822825
18.9157  0.366308
18.9347  0.231059
18.9537  0.0777495
18.9727  0.0768537
18.9917  -0.214236
19.0107  -0.274441
19.0297  -0.376589
19.0487  -0.272066
19.0677  -0.0186716
19.0867  0.0482653
19.1057  0.00753444
19.1247  -0.00059151
19.1437  -0.119538
19.1627  -0.268177
19.1817  -0.156806
19.2007  -0.0475158
19.2197  0.0721734
19.2387  0.215392
19.2577  0.355497
19.2767  0.34834
19.2957  0.451176
19.3148  0.736112
19.3338  0.985577
19.3528  1.05751
19.3718  0.967535
19.3908  0.887648
19.4098  1.03405
19.4288  0.995869
19.4478  1.06565
19.4668  0.864505
19.4858  0.805965
19.5048  0.85505
19.5238  0.812888
19.5428  0.792993
19.5618  0.54636
19.5808  0.446835
19.5998  0.280097
19.6188  0.266084
19.6378  0.163415
19.6568  0.0915187
19.6758  -0.0351274
19.6948  -0.343558
19.7138  -0.446741
19.7328  -0.508764
19.7518  -0.525578
19.7708  -0.60611
19.7898  -0.298506
19.8088  0.144566
19.8278  0.415337
19.8468  0.298152
19.8658  0.0547162
19.8848  0.0317017
19.9039  0.282067
19.9229  0.448316
19.9419  0.346887
19.9609  0.450019
19.9799  0.576246
19.9989  0.697096
20.0179  0.540384
20.0369  0.437112
20.0559  0.567416
20.0749  0.73311
20.0939  0.600484
20.1129  0.518649
20.1319  0.519666
20.1509  0.433677
20.1699  0.312774
20.1889  0.497816
20.2079  0.609604
20.2269  0.745157
20.2459  0.869433
20.2649  1.05832
20.2839  1.14849
20.3029  1.10433
20.3219  1.05527
20.3409  1.13954
20.3599  1.403
20.3789  1.65854
20.3979  1.52417
20.4169  1.55587
20.4359  1.72604
20.4549  1.85402
20.4739  1.73567
20.493  1.61887
20.512  1.54522
20.531  1.66158
20.55  1.69642
20.569  1.78489
20.588  1.67509
20.607  1.57344
20.626  1.2729
20.645  0.968739
20.664  0.848677
20.683  0.977957
20.702  1.14263
20.721  0.95914
20.74  0.818307
20.759  0.772393
20.778  0.616429
20.797  0.401137
20.816  0.337545
20.835  0.239591
20.854  0.142214
20.873  0.157714
20.892  0.110607
20.911  0.106908
20.93  0.206078
20.949  0.278349
20.968  0.220817
20.987  0.358553
21.006  0.344214
21.025  0.202641
21.044  -0.0294859
21.0631  -0.0634369
21.0821  -0.0234593
21.1011  0.114128
21.1201  0.191005
21.1391  0.420592
21.1581  0.470206
21.1771  0.499913
21.1961  0.265133
21.2151  0.235724
21.2341  0.225498
21.2531  0.132164
21.2721  0.0830508
21.2911  0.266701
21.3101  0.30741
21.3291  0.150243
21.3481  -0.000349415
21.3671  -0.0549758
21.3861  0.0778298
21.4051  0.0403722
21.4241  -0.0578449
21.4431  -0.200722
21.4621  -0.0579527
21.4811  0.195628
21.5001  0.094721
21.5191  -0.0760855
21.5381  0.0228617
21.5571  0.221441
21.5761  0.109515
21.5951  0.00958782
21.6141  0.0968952
21.6331  0.207271
21.6522  0.202465
21.6712  0.15663
21.6902  0.130234
21.7092  0.0602047
21.7282  -0.0505733
21.7472  -0.0955916
21.7662  -0.15516
21.7852  0.0721689
21.8042  0.22033
21.8232  0.121535
21.8422  0.0756053
21.8612  0.0843167
21.8802  0.0929281
21.8992  0.0346493
21.9182  -0.0294745
21.9372  -0.115916
21.9562  -0.107432
21.9752  0.0337062
21.9942  0.0544559
22.0132  0.048562
22.0322  -0.0366803