File: data/processed/Run2_XRD/14_ReMoB2_635psi_noRuby_S_P1_C1_D1w_091.dat
2.93393  0.265275
2.95294  0.344127
2.97194  0.70668
2.99094  0.66328
3.00995  0.537975
3.02895  0.118021
3.04795  0.805577
3.06696  1.04221
3.08596  0.869218
3.10496  0.461017
3.12397  0.790518
3.14297  0.849839
3.16197  0.632698
3.18098  0.717607
3.19998  1.18986
3.21898  1.43667
3.23799  1.63974
3.25699  1.83478
3.27599  2.05214
3.295  1.73772
3.314  1.46773
3.333  1.49263
3.35201  1.38716
3.37101  0.795872
3.39001  0.493576
3.40902  0.826528
3.42802  2.15329
3.44702  2.94368
3.46603  3.6361
3.48503  4.59485
3.50403  6.00531
3.52304  8.44232
3.54204  10.5361
3.56104  12.2102
3.58005  11.4774
3.59905  9.66273
3.61805  7.12699
3.63706  5.20639
3.65606  3.59994
3.67506  2.53343
3.69407  1.77284
3.71307  1.37514
3.73207  1.5408
3.75108  1.571
3.77008  1.73122
3.78908  1.07984
3.80808  0.706153
3.82709  0.96398
3.84609  1.34857
3.86509  1.1039
3.8841  0.794623
3.9031  0.504978
3.9221  0.85975
3.94111  1.01848
3.96011  0.755261
3.97911  0.94577
3.99812  0.847898
4.01712  0.931721
4.03612  0.819462
4.05513  1.09292
4.07413  1.00244
4.09313  1.16557
4.11214  1.15554
4.13114  0.737538
4.15014  0.252768
4.16915  0.238548
4.18815  0.769133
4.20715  0.770133
4.22616  0.178115
4.24516  -0.229872
4.26416  -0.148412
4.28317  0.0316786
4.30217  0.54683
4.32117  0.623967
4.34018  0.750301
4.35918  0.779256
4.37818  0.975751
4.39719  1.31724
4.41619  1.66366
4.43519  1.39076
4.4542  1.53452
4.4732  1.41908
4.4922  1.66399
4.51121  1.13299
4.53021  0.68234
4.54921  0.770723
4.56822  0.836907
4.58722  0.898664
4.60622  0.762037
4.62523  0.537376
4.64423  0.621419
4.66323  1.0213
4.68224  0.853638
4.70124  0.676081
4.72024  0.358168
4.73924  0.644958
4.75825  0.635811
4.77725  0.144022
4.79625  -0.176413
4.81526  0.31583
4.83426  1.04841
4.85326  1.21443
4.87227  0.881493
4.89127  0.121772
4.91027  -0.0368825
4.92928  -0.357079
4.94828  0.54068
4.96728  0.61381
4.98629  0.61056
5.00529  0.20436
5.02429  0.335808
5.0433  0.723922
5.0623  0.430847
5.0813  0.758207
5.10031  1.10282
5.11931  1.58371
5.13831  1.64364
5.15732  0.866301
5.17632  0.548146
5.19532  0.364368
5.21433  0.965767
5.23333  1.4563
5.25233  1.43432
5.27134  1.3205
5.29034  1.13282
5.30934  0.359701
5.32835  0.00588974
5.34735  0.120474
5.36635  0.648149
5.38536  0.474994
5.40436  -0.0495523
5.42336  -0.240408
5.44237  -0.0560168
5.46137  0.311061
5.48037  0.814602
5.49938  1.06622
5.51838  1.09727
5.53738  1.20644
5.55639  0.751339
5.57539  0.852569
5.59439  0.704533
5.6134  0.793384
5.6324  0.446344
5.6514  0.659555
5.67041  0.790707
5.68941  0.758838
5.70841  0.610148
5.72741  0.349656
5.74642  0.666509
5.76542  0.397061
5.78442  0.388591
5.80343  0.289764
5.82243  0.781341
5.84143  1.02894
5.86044  1.64063
5.87944  1.4773
5.89844  1.71415
5.91745  1.11753
5.93645  1.16802
5.95545  1.45425
5.97446  1.75006
5.99346  1.60449
6.01246  1.47427
6.03147  1.57648
6.05047  1.56643
6.06947  1.27493
6.08848  0.823232
6.10748  0.930533
6.12648  0.57193
6.14549  0.549127
6.16449  0.568272
6.18349  0.751378
6.2025  0.291174
6.2215  -0.00986911
6.2405  -0.199851
6.25951  -0.0950158
6.27851  -0.149002
6.29751  -0.144542
6.31652  -0.0555657
6.33552  -0.0650476
6.35452  -0.26178
6.37353  -0.256099
6.39253  0.417812
6.41153  0.966038
6.43054  1.31908
6.44954  1.93764
6.46854  2.45387
6.48755  3.11078
6.50655  3.83523
6.52555  5.4247
6.54456  7.01473
6.56356  7.81835
6.58256  6.6371
6.60157  4.61233
6.62057  2.93014
6.63957  2.17628
6.65857  1.70866
6.67758  1.13765
6.69658  0.621517
6.71558  0.629754
6.73459  0.852305
6.75359  1.30089
6.77259  1.46643
6.7916  2.30282
6.8106  3.50316
6.8296  5.28434
6.84861  6.80743
6.86761  8.03341
6.88661  8.75489
6.90562  9.82136
6.92462  9.90887
6.94362  10.3978
6.96263  10.5458
6.98163  11.2038
7.00063  12.0431
7.01964  14.4276
7.03864  18.4943
7.05764  23.8634
7.07665  31.6704
7.09565  40.6059
7.11465  49.3832
7.13366  57.6867
7.15266  60.0156
7.17166  56.3232
7.19067  49.5535
7.20967  41.5721
7.22867  33.1271
7.24768  26.3147
7.26668  20.3394
7.28568  15.6189
7.30469  12.1223
7.32369  9.3989
7.34269  7.58598
7.3617  6.0748
7.3807  5.05059
7.3997  4.29881
7.41871  3.56159
7.43771  3.06611
7.45671  2.55739
7.47572  2.16802
7.49472  2.0051
7.51372  2.06717
7.53273  1.90869
7.55173  1.23542
7.57073  0.882594
7.58973  0.732942
7.60874  0.639342
7.62774  0.66605
7.64674  0.614597
7.66575  0.805083
7.68475  0.886972
7.70375  0.451486
7.72276  0.413656
7.74176  0.457044
7.76076  0.491791
7.77977  0.605352
7.79877  0.417642
7.81777  0.117643
7.83678  -0.0576684
7.85578  -0.0451383
7.87478  0.323617
7.89379  0.336753
7.91279  0.16225
7.93179  0.0536799
7.9508  0.376862
7.9698  0.49873
7.9888  0.596066
8.00781  0.70649
8.02681  0.571328
8.04581  0.304767
8.06482  0.0560844
8.08382  0.15255
8.10282  0.266169
8.12183  0.600569
8.14083  0.865722
8.15983  0.947246
8.17884  0.637078
8.19784  0.373888
8.21684  0.188024
8.23585  0.593329
8.25485  0.842677
8.27385  0.731121
8.29286  0.290212
8.31186  0.232627
8.33086  -0.100565
8.34987  -0.43775
8.36887  -0.112365
8.38787  0.355576
8.40688  1.05272
8.42588  1.25014
8.44488  1.10661
8.46389  0.670942
8.48289  0.453862
8.50189  0.280277
8.52089  0.529117
8.5399  0.631995
8.5589  0.755443
8.5779  0.383559
8.59691  -0.0618315
8.61591  -0.28382
8.63491  -0.200837
8.65392  0.178745
8.67292  0.408733
8.69192  0.43826
8.71093  -0.082029
8.72993  -0.332965
8.74893  -0.53974
8.76794  -0.159272
8.78694  -0.213312
8.80594  -0.316645
8.82495  -0.269357
8.84395  -0.0112974
8.86295  0.27745
8.88196  0.631821
8.90096  0.630869
8.91996  0.738801
8.93897  0.919292
8.95797  1.01363
8.97697  1.17901
8.99598  1.27393
9.01498  1.82316
9.03398  2.07316
9.05299  2.04014
9.07199  2.57624
9.09099  3.689
9.11  5.54762
9.129  7.38451
9.148  8.9377
9.16701  11.0034
9.18601  13.4821
9.20501  17.1385
9.22402  22.1822
9.24302  28.6344
9.26202  36.4394
9.28103  47.0291
9.30003  61.0678
9.31903  81.4614
9.33804  106.699
9.35704  136.567
9.37604  168.061
9.39505  199.142
9.41405  227.607
9.43305  248.61
9.45206  262.11
9.47106  265.481
9.49006  262.369
9.50906  252.886
9.52807  239.016
9.54707  221.072
9.56607  202.243
9.58508  182.86
9.60408  164.912
9.62308  150.426
9.64209  139.567
9.66109  131.995
9.68009  127.471
9.6991  124.942
9.7181  123.502
9.7371  123.261
9.75611  122.058
9.77511  121.76
9.79411  119.362
9.81312  117.031
9.83212  113.276
9.85112  108.548
9.87013  103.135
9.88913  97.5003
9.90813  90.5586
9.92714  83.146
9.94614  75.2092
9.96514  67.5686
9.98415  60.1879
10.0031  52.2214
10.0222  45.1529
10.0412  38.7321
10.0602  32.9524
10.0792  27.5539
10.0982  22.2562
10.1172  18.154
10.1362  14.2865
10.1552  11.318
10.1742  8.93269
10.1932  7.0318
10.2122  5.33269
10.2312  3.62171
10.2502  2.19096
10.2692  0.988635
10.2882  0.309407
10.3072  -0.088817
10.3262  -0.295528
10.3452  -0.640301
10.3642  -0.918285
10.3832  -1.05537
10.4022  -1.02092
10.4212  -1.09302
10.4402  -1.17806
10.4592  -0.500402
10.4782  0.335193
10.4972  1.03353
10.5162  1.48005
10.5352  1.64881
10.5542  2.35946
10.5732  2.83749
10.5923  3.29462
10.6113  3.47285
10.6303  3.60281
10.6493  3.21511
10.6683  2.59633
10.6873  2.63432
10.7063  2.92453
10.7253  3.25619
10.7443  3.01035
10.7633  2.97177
10.7823  3.558
10.8013  4.08523
10.8203  4.5251
10.8393  4.90075
10.8583  5.04771
10.8773  5.56633
10.8963  5.63531
10.9153  6.09378
10.9343  5.96327
10.9533  6.15848
10.9723  6.29778
10.9913  6.56542
11.0103  6.46962
11.0293  6.14114
11.0483  5.90709
11.0673  5.62633
11.0863  5.73331
11.1053  5.80865
11.1243  6.08929
11.1433  6.7489
11.1623  7.19634
11.1814  7.76488
11.2004  8.47015
11.2194  9.29769
11.2384  9.76891
11.2574  10.2578
11.2764  10.6255
11.2954  11.086
11.3144  11.2506
11.3334  11.7614
11.3524  11.5304
11.3714  10.9772
11.3904  10.4436
11.4094  9.80106
11.4284  9.04175
11.4474  7.92163
11.4664  6.7267
11.4854  5.81391
11.5044  4.83291
11.5234  4.09208
11.5424  3.10417
11.5614  2.39989
11.5804  1.78037
11.5994  1.12768
11.6184  0.755403
11.6374  0.341994
11.6564  -0.0548441
11.6754  -0.326153
11.6944  -0.43713
11.7134  -0.717611
11.7324  -0.817936
11.7515  -0.82915
11.7705  -0.737632
11.7895  -0.677387
11.8085  -0.427361
11.8275  -0.0332968
11.8465  0.170779
11.8655  0.580421
11.8845  1.06021
11.9035  1.80918
11.9225  2.54299
11.9415  3.52477
11.9605  4.37016
11.9795  5.71169
11.9985  7.49063
12.0175  9.60754
12.0365  11.8071
12.0555  14.4302
12.0745  17.9689
12.0935  21.9657
12.1125  28.0492
12.1315  35.3454
12.1505  44.6813
12.1695  56.2043
12.1885  69.6715
12.2075  87.5283
12.2265  108.967
12.2455  134.258
12.2645  165.788
12.2835  201.048
12.3025  243.244
12.3215  287.393
12.3406  332.572
12.3596  370.704
12.3786  400.531
12.3976  411.268
12.4166  401.913
12.4356  376.509
12.4546  336.767
12.4736  292.305
12.4926  247.545
12.5116  203.926
12.5306  166.617
12.5496  134.753
12.5686  108.003
12.5876  87.2378
12.6066  70.7379
12.6256  58.9176
12.6446  50.4244
12.6636  44.7079
12.6826  40.2342
12.7016  36.739
12.7206  33.6942
12.7396  31.1867
12.7586  29.5559
12.7776  28.311
12.7966  27.2332
12.8156  26.0843
12.8346  25.3467
12.8536  24.9855
12.8726  24.8068
12.8916  24.3661
12.9106  23.5383
12.9297  22.8631
12.9487  22.3288
12.9677  21.4577
12.9867  20.2361
13.0057  18.7252
13.0247  17.394
13.0437  16.3097
13.0627  14.8572
13.0817  13.8183
13.1007  12.9836
13.1197  12.4067
13.1387  11.8133
13.1577  10.9187
13.1767  10.3807
13.1957  10.0826
13.2147  9.75484
13.2337  9.57077
13.2527  9.2961
13.2717  9.44074
13.2907  9.55982
13.3097  9.65241
13.3287  9.52088
13.3477  9.73944
13.3667  9.84152
13.3857  10.0996
13.4047  10.1749
13.4237  10.2408
13.4427  10.2826
13.4617  10.3355
13.4807  10.5404
13.4998  10.7385
13.5188  10.4328
13.5378  10.0612
13.5568  9.73571
13.5758  9.10827
13.5948  8.43906
13.6138  7.91589
13.6328  7.549
13.6518  7.02951
13.6708  6.41447
13.6898  5.62079
13.7088  4.90875
13.7278  4.49235
13.7468  4.00689
13.7658  3.64373
13.7848  2.98361
13.8038  2.30684
13.8228  1.88259
13.8418  1.79837
13.8608  1.42944
13.8798  0.739394
13.8988  0.199669
13.9178  -0.215403
13.9368  -0.588454
13.9558  -0.827163
13.9748  -0.947108
13.9938  -0.741437
14.0128  -0.591806
14.0318  -0.127838
14.0508  0.547041
14.0698  1.02031
14.0889  1.76926
14.1079  2.33281
14.1269  2.93002
14.1459  3.10759
14.1649  3.25966
14.1839  3.5063
14.2029  3.73589
14.2219  4.0177
14.2409  4.39853
14.2599  4.48411
14.2789  4.84453
14.2979  5.31314
14.3169  5.39081
14.3359  5.10925
14.3549  5.39811
14.3739  5.58452
14.3929  5.63093
14.4119  5.3456
14.4309  5.13655
14.4499  4.72283
14.4689  4.60571
14.4879  3.99345
14.5069  3.47833
14.5259  2.81415
14.5449  2.58142
14.5639  2.11564
14.5829  1.75561
14.6019  0.966637
14.6209  0.508567
14.6399  0.207062
14.6589  0.278153
14.678  0.137144
14.697  -0.330132
14.716  -0.442772
14.735  -0.624356
14.754  -0.0962163
14.773  0.232229
14.792  0.0432618
14.811  -0.19665
14.83  -0.219101
14.849  -0.283449
14.868  -0.199519
14.887  -0.142312
14.906  0.430861
14.925  0.172414
14.944  0.0668172
14.963  -0.297808
14.982  -0.214551
15.001  -0.394303
15.02  -0.467941
15.039  -0.166616
15.058  0.0505524
15.077  0.250405
15.096  0.255737
15.115  0.171332
15.134  0.361806
15.153  0.37632
15.172  0.303918
15.191  0.177069
15.21  0.373286
15.229  0.467708
15.2481  0.807197
15.2671  1.16999
15.2861  1.2919
15.3051  0.913954
15.3241  0.989825
15.3431  0.978531
15.3621  1.00267
15.3811  0.998524
15.4001  0.987348
15.4191  1.14401
15.4381  0.9301
15.4571  1.1742
15.4761  0.942307
15.4951  0.557078
15.5141  0.0316813
15.5331  0.21158
15.5521  0.291931
15.5711  0.194797
15.5901  -0.0532475
15.6091  -0.01925
15.6281  0.0393602
15.6471  -0.00279401
15.6661  0.182524
15.6851  0.317702
15.7041  0.55997
15.7231  0.540066
15.7421  0.255423
15.7611  -0.054691
15.7801  0.185255
15.7991  0.273536
15.8181  0.351022
15.8372  0.372495
15.8562  0.541919
15.8752  0.655225
15.8942  0.791555
15.9132  0.920098
15.9322  0.953053
15.9512  1.27427
15.9702  1.65726
15.9892  2.12323
16.0082  2.38324
16.0272  2.73943
16.0462  3.20382
16.0652  3.44994
16.0842  4.05669
16.1032  4.82887
16.1222  5.8931
16.1412  7.04478
16.1602  8.36699
16.1792  9.41117
16.1982  10.6035
16.2172  12.0728
16.2362  13.7028
16.2552  15.5187
16.2742  17.7849
16.2932  19.5236
16.3122  21.6785
16.3312  23.8296
16.3502  25.8691
16.3692  27.4235
16.3882  29.336
16.4073  30.3947
16.4263  32.1722
16.4453  33.2444
16.4643  34.4636
16.4833  35.4857
16.5023  35.7851
16.5213  36.1392
16.5403  35.998
16.5593  35.8642
16.5783  35.206
16.5973  33.6976
16.6163  32.5738
16.6353  31.2093
16.6543  29.4936
16.6733  28.0187
16.6923  26.1209
16.7113  25.556
16.7303  24.857
16.7493  24.3315
16.7683  23.7233
16.7873  22.9452
16.8063  22.5572
16.8253  22.5216
16.8443  22.4789
16.8633  21.9324
16.8823  21.319
16.9013  20.8406
16.9203  20.4465
16.9393  19.3149
16.9583  18.0956
16.9773  16.5169
16.9964  15.241
17.0154  13.4561
17.0344  11.7826
17.0534  10.2305
17.0724  8.83245
17.0914  7.28152
17.1104  6.06592
17.1294  4.90436
17.1484  4.08735
17.1674  3.7493
17.1864  3.46383
17.2054  3.22904
17.2244  3.0624
17.2434  2.99057
17.2624  2.88313
17.2814  2.44291
17.3004  2.00954
17.3194  1.43182
17.3384  1.3085
17.3574  1.39061
17.3764  1.84235
17.3954  2.19143
17.4144  2.27307
17.4334  2.23831
17.4524  2.10658
17.4714  2.03839
17.4904  2.10195
17.5094  2.32546
17.5284  2.33195
17.5474  2.2644
17.5664  2.03441
17.5855  1.84357
17.6045  1.80337
17.6235  1.713
17.6425  2.05687
17.6615  2.28846
17.6805  2.54077
17.6995  2.70493
17.7185  2.86173
17.7375  2.85021
17.7565  2.95831
17.7755  3.65476
17.7945  4.09505
17.8135  4.66953
17.8325  4.81589
17.8515  5.24655
17.8705  5.91862
17.8895  6.53879
17.9085  7.19456
17.9275  7.96231
17.9465  9.23238
17.9655  10.5444
17.9845  11.7744
18.0035  12.9038
18.0225  14.2948
18.0415  16.0557
18.0605  18.1167
18.0795  20.2683
18.0985  22.3187
18.1175  24.2882
18.1365  27.0233
18.1556  30.0577
18.1746  33.6076
18.1936  37.4198
18.2126  41.1832
18.2316  45.022
18.2506  48.4753
18.2696  52.0753
18.2886  55.2498
18.3076  58.1126
18.3266  60.5251
18.3456  62.0021
18.3646  62.6817
18.3836  62.6733
18.4026  62.12
18.4216  60.3357
18.4406  57.3197
18.4596  54.0579
18.4786  50.5839
18.4976  47.2364
18.5166  43.1414
18.5356  38.9215
18.5546  34.842
18.5736  30.3629
18.5926  26.1908
18.6116  22.538
18.6306  19.5591
18.6496  16.8704
18.6686  14.3709
18.6876  12.0567
18.7066  10.2769
18.7256  8.74984
18.7447  7.50348
18.7637  6.46803
18.7827  5.36545
18.8017  4.34292
18.8207  3.6334
18.8397  3.25202
18.8587  2.77072
18.8777  2.31702
18.8967  1.86624
18.9157  1.22585
18.9347  0.604275
18.9537  0.514312
18.9727  0.44312
18.9917  0.229407
19.0107  -0.0230632
19.0297  -0.0875235
19.0487  -0.117276
19.0677  -0.14927
19.0867  0.140398
19.1057  0.188998
19.1247  0.107505
19.1437  -0.359139
19.1627  -0.535001
19.1817  -0.28614
19.2007  -0.10988
19.2197  -0.150676
19.2387  -0.257609
19.2577  -0.254206
19.2767  -0.110498
19.2957  0.115427
19.3148  0.337453
19.3338  0.403812
19.3528  0.436996
19.3718  0.708723
19.3908  1.18795
19.4098  1.59202
19.4288  1.58628
19.4478  1.70119
19.4668  1.83095
19.4858  2.29657
19.5048  2.46852
19.5238  2.56183
19.5428  2.50098
19.5618  2.22463
19.5808  1.96643
19.5998  1.94068
19.6188  1.85811
19.6378  1.43881
19.6568  1.0519
19.6758  0.772644
19.6948  0.503023
19.7138  0.311923
19.7328  -0.16481
19.7518  -0.131749
19.7708  -0.234953
19.7898  -0.186697
19.8088  -0.427355
19.8278  -0.561127
19.8468  -0.425767
19.8658  -0.124513
19.8848  0.0790251
19.9039  0.000373408
19.9229  -0.311519
19.9419  -0.334383
19.9609  -0.128403
19.9799  0.294811
19.9989  0.481681
20.0179  0.441743
20.0369  0.333648
20.0559  0.18701
20.0749  0.42518
20.0939  0.525107
20.1129  0.631016
20.1319  0.524083
20.1509  0.284018
20.1699  0.417885
20.1889  0.590271
20.2079  0.804517
20.2269  0.694553
20.2459  0.90103
20.2649  1.05155
20.2839  1.05473
20.3029  1.05134
20.3219  1.13834
20.3409  1.1557
20.3599  1.27508
20.3789  1.42629
20.3979  1.44907
20.4169  1.88501
20.4359  3.91965
20.4549  5.23797
20.4739  5.64764
20.493  5.48461
20.512  5.69756
20.531  8.67013
20.55  7.54932
20.569  7.78313
20.588  4.55317
20.607  4.74825
20.626  4.95637
20.645  4.12415
20.664  3.70694
20.683  3.42217
20.702  3.99967
20.721  2.72178
20.74  1.80174
20.759  1.44155
20.778  1.31786
20.797  1.17673
20.816  1.11888
20.835  0.874902
20.854  0.737589
20.873  0.511798
20.892  0.430093
20.911  0.153049
20.93  0.0305413
20.949  0.216547
20.968  0.335026
20.987  0.439901
21.006  0.450057
21.025  0.378539
21.044  0.396621
21.0631  0.371169
21.0821  0.18928
21.1011  -0.0791118
21.1201  -0.247105
21.1391  0.03318
21.1581  0.335781
21.1771  0.242122
21.1961  0.267659
21.2151  0.41243
21.2341  0.514506
21.2531  0.476961
21.2721  0.382365
21.2911  0.492181
21.3101  0.363374
21.3291  0.135752
21.3481  0.110787
21.3671  0.14122
21.3861  0.358126
21.4051  0.295686
21.4241  0.15381
21.4431  -0.00254488
21.4621  -0.126831
21.4811  -0.169005
21.5001  -0.137293
21.5191  -0.183652
21.5381  -0.103117
21.5571  0.11557
21.5761  0.220245
21.5951  0.225223
21.6141  0.327692
21.6331  0.460842
21.6522  0.414649
21.6712  0.200948
21.6902  0.0462917
21.7092  0.279031
21.7282  0.328337
21.7472  0.259112
21.7662  0.393947
21.7852  0.358541
21.8042  0.14592
21.8232  -0.0812529
21.8422  -0.185622
21.8612  -0.189645
21.8802  -0.0502329
21.8992  0.0420337
21.9182  0.0913904
21.9372  0.146341
21.9562  0.21064
21.9752  0.0838878
21.9942  -0.212128
22.0132  -0.235439
22.0322  0.169537