File: data/processed/Run2_XRD/15_ReMoB2_665psi_noRuby_S_P1_C1_D1w_097.dat
2.93393  0.30517
2.95294  0.519593
2.97194  0.227654
2.99094  0.265765
3.00995  0.569017
3.02895  0.997836
3.04795  0.352796
3.06696  0.176856
3.08596  0.272214
3.10496  0.601345
3.12397  0.899608
3.14297  0.639057
3.16197  0.591803
3.18098  0.0335362
3.19998  -0.106418
3.21898  0.289967
3.23799  1.02365
3.25699  1.18429
3.27599  0.575657
3.295  0.445685
3.314  0.62955
3.333  0.902198
3.35201  1.12533
3.37101  1.05802
3.39001  0.865221
3.40902  0.959583
3.42802  1.49864
3.44702  2.09996
3.46603  2.6757
3.48503  3.55278
3.50403  5.12955
3.52304  7.92683
3.54204  10.3168
3.56104  12.1545
3.58005  12.2322
3.59905  10.6868
3.61805  7.7786
3.63706  5.27246
3.65606  3.71207
3.67506  2.69554
3.69407  1.90587
3.71307  1.32248
3.73207  1.09254
3.75108  1.26098
3.77008  1.39777
3.78908  1.49302
3.80808  1.47804
3.82709  1.61602
3.84609  1.15953
3.86509  0.907271
3.8841  0.97142
3.9031  0.892076
3.9221  0.882682
3.94111  0.871685
3.96011  1.04597
3.97911  0.542285
3.99812  0.271008
4.01712  0.501307
4.03612  0.847906
4.05513  1.06937
4.07413  1.1188
4.09313  0.655337
4.11214  0.476417
4.13114  0.535188
4.15014  0.887192
4.16915  0.787822
4.18815  0.148322
4.20715  -0.0997775
4.22616  -0.127882
4.24516  0.113698
4.26416  0.523502
4.28317  0.528376
4.30217  0.213456
4.32117  -0.11613
4.34018  -0.0231919
4.35918  0.63729
4.37818  1.18368
4.39719  1.82757
4.41619  1.69004
4.43519  1.49362
4.4542  1.51632
4.4732  1.53396
4.4922  1.276
4.51121  1.30695
4.53021  0.836085
4.54921  0.755615
4.56822  0.686531
4.58722  0.697276
4.60622  0.458317
4.62523  0.284198
4.64423  -0.0958187
4.66323  -0.0453501
4.68224  0.100609
4.70124  0.573806
4.72024  0.894154
4.73924  0.565142
4.75825  0.382605
4.77725  0.0629999
4.79625  0.0849866
4.81526  0.0732639
4.83426  0.0459025
4.85326  0.0140964
4.87227  0.284416
4.89127  0.425813
4.91027  0.700324
4.92928  0.713001
4.94828  0.727838
4.96728  0.63431
4.98629  0.246212
5.00529  0.331838
5.02429  0.00274022
5.0433  0.137204
5.0623  0.74984
5.0813  0.775896
5.10031  0.873054
5.11931  0.898774
5.13831  1.13317
5.15732  0.807695
5.17632  0.0763401
5.19532  -0.0010942
5.21433  0.552097
5.23333  0.953495
5.25233  1.11769
5.27134  1.02365
5.29034  1.07139
5.30934  0.48461
5.32835  0.21928
5.34735  0.289162
5.36635  0.746059
5.38536  1.67306
5.40436  1.12877
5.42336  0.680658
5.44237  -0.179838
5.46137  0.236342
5.48037  0.750829
5.49938  0.85491
5.51838  1.05559
5.53738  0.44959
5.55639  -0.111757
5.57539  -0.111726
5.59439  0.292479
5.6134  0.896076
5.6324  0.957169
5.6514  0.926102
5.67041  0.654699
5.68941  0.318376
5.70841  0.161913
5.72741  -0.0102524
5.74642  0.129988
5.76542  0.199813
5.78442  0.145625
5.80343  0.578459
5.82243  1.00582
5.84143  1.48635
5.86044  1.46118
5.87944  1.49062
5.89844  1.721
5.91745  2.26436
5.93645  2.30982
5.95545  2.09075
5.97446  2.06567
5.99346  1.6764
6.01246  1.24186
6.03147  0.867149
6.05047  -0.0279687
6.06947  -0.0469088
6.08848  -0.108114
6.10748  0.308927
6.12648  0.279573
6.14549  0.865051
6.16449  0.836184
6.18349  0.853987
6.2025  0.356292
6.2215  0.438847
6.2405  0.0169498
6.25951  0.0446039
6.27851  -0.0935616
6.29751  -0.100028
6.31652  0.00981148
6.33552  0.335501
6.35452  0.679917
6.37353  0.779684
6.39253  0.688782
6.41153  0.505759
6.43054  0.703136
6.44954  1.12518
6.46854  1.22228
6.48755  2.04886
6.50655  3.82641
6.52555  6.09094
6.54456  7.62767
6.56356  8.03316
6.58256  7.43975
6.60157  6.14441
6.62057  4.72095
6.63957  3.09355
6.65857  1.81476
6.67758  0.601261
6.69658  0.15507
6.71558  0.0514335
6.73459  0.460398
6.75359  0.780127
6.77259  1.07344
6.7916  1.0378
6.8106  1.44257
6.8296  2.38665
6.84861  4.06487
6.86761  5.8377
6.88661  7.42586
6.90562  8.54643
6.92462  9.52888
6.94362  10.0737
6.96263  10.3083
6.98163  10.7037
7.00063  11.178
7.01964  12.4467
7.03864  14.9262
7.05764  18.3812
7.07665  23.831
7.09565  30.6778
7.11465  38.424
7.13366  47.5768
7.15266  52.7273
7.17166  55.7046
7.19067  53.7826
7.20967  48.5883
7.22867  41.0981
7.24768  34.1392
7.26668  27.0455
7.28568  21.4422
7.30469  16.889
7.32369  12.9162
7.34269  10.4164
7.3617  8.34557
7.3807  7.38678
7.3997  6.05171
7.41871  5.37157
7.43771  4.69462
7.45671  3.84945
7.47572  3.19574
7.49472  3.11271
7.51372  3.17322
7.53273  3.02842
7.55173  2.7303
7.57073  2.23003
7.58973  1.64405
7.60874  1.0828
7.62774  1.02217
7.64674  0.82411
7.66575  0.713151
7.68475  0.566383
7.70375  0.635288
7.72276  0.927352
7.74176  0.692127
7.76076  0.353021
7.77977  -0.0730639
7.79877  -0.0708292
7.81777  -0.0411501
7.83678  0.263442
7.85578  0.363804
7.87478  0.561662
7.89379  0.75815
7.91279  0.952304
7.93179  0.839096
7.9508  0.491837
7.9698  -0.00313047
7.9888  0.207241
8.00781  0.382429
8.02681  0.51654
8.04581  0.100731
8.06482  -0.122142
8.08382  0.155193
8.10282  0.664693
8.12183  1.2749
8.14083  1.14519
8.15983  0.85024
8.17884  0.376453
8.19784  0.172598
8.21684  0.218147
8.23585  0.096247
8.25485  0.0245716
8.27385  0.213703
8.29286  0.134493
8.31186  0.576356
8.33086  0.407573
8.34987  0.251954
8.36887  0.140744
8.38787  0.265346
8.40688  0.494956
8.42588  0.508063
8.44488  0.402991
8.46389  0.397416
8.48289  0.229296
8.50189  0.000226439
8.52089  -0.112433
8.5399  -0.0691144
8.5589  -0.306087
8.5779  -0.342292
8.59691  -0.32039
8.61591  -0.199336
8.63491  -0.346555
8.65392  -0.686607
8.67292  -0.453867
8.69192  -0.0787844
8.71093  0.271642
8.72993  0.400574
8.74893  0.593442
8.76794  0.574794
8.78694  0.465238
8.80594  0.355193
8.82495  0.21993
8.84395  0.147692
8.86295  0.254311
8.88196  0.201642
8.90096  0.0929931
8.91996  -0.141051
8.93897  0.198565
8.95797  0.242618
8.97697  0.601232
8.99598  1.2375
9.01498  1.45301
9.03398  1.8982
9.05299  1.91689
9.07199  2.37645
9.09099  2.92957
9.11  3.70676
9.129  4.53103
9.148  5.67853
9.16701  7.48296
9.18601  9.47663
9.20501  11.6192
9.22402  14.3724
9.24302  18.3217
9.26202  23.3023
9.28103  30.308
9.30003  38.9093
9.31903  50.7962
9.33804  66.5293
9.35704  87.2442
9.37604  113.453
9.39505  145.274
9.41405  182.379
9.43305  217.706
9.45206  248.445
9.47106  268.81
9.49006  279.921
9.50906  280.35
9.52807  272.482
9.54707  257.73
9.56607  239.472
9.58508  218.214
9.60408  197.656
9.62308  178.739
9.64209  162.17
9.66109  148.694
9.68009  138.059
9.6991  130.434
9.7181  124.827
9.7371  122.466
9.75611  120.945
9.77511  121.377
9.79411  120.531
9.81312  120.012
9.83212  119.078
9.85112  117.181
9.87013  114.96
9.88913  111.018
9.90813  104.97
9.92714  97.3884
9.94614  89.2608
9.96514  81.4534
9.98415  73.7045
10.0031  65.8985
10.0222  58.5245
10.0412  51.7093
10.0602  44.9177
10.0792  38.4881
10.0982  32.1106
10.1172  26.5911
10.1362  21.2489
10.1552  17.0713
10.1742  13.4165
10.1932  10.6921
10.2122  8.45636
10.2312  6.73839
10.2502  5.05838
10.2692  3.5662
10.2882  2.24471
10.3072  1.37865
10.3262  0.584079
10.3452  0.068509
10.3642  -0.553032
10.3832  -0.649474
10.4022  -1.03034
10.4212  -1.33851
10.4402  -1.22942
10.4592  -0.918566
10.4782  -0.464097
10.4972  -0.341178
10.5162  0.20533
10.5352  0.586313
10.5542  1.51085
10.5732  2.4508
10.5923  3.31137
10.6113  3.58186
10.6303  3.87346
10.6493  3.70419
10.6683  3.34769
10.6873  3.1188
10.7063  3.02286
10.7253  3.41425
10.7443  3.27354
10.7633  3.23964
10.7823  3.17387
10.8013  3.12016
10.8203  3.03139
10.8393  3.07731
10.8583  2.90491
10.8773  3.19738
10.8963  2.97937
10.9153  3.18665
10.9343  3.64963
10.9533  3.98207
10.9723  3.94547
10.9913  3.85944
11.0103  3.90169
11.0293  4.23101
11.0483  4.37237
11.0673  4.30882
11.0863  4.19327
11.1053  4.29193
11.1243  4.8607
11.1433  5.75721
11.1623  6.23575
11.1814  6.40148
11.2004  6.47884
11.2194  7.24747
11.2384  8.01599
11.2574  8.35575
11.2764  8.95593
11.2954  9.8504
11.3144  10.6522
11.3334  11.0305
11.3524  11.0737
11.3714  11.0133
11.3904  10.9107
11.4094  10.4348
11.4284  9.88205
11.4474  9.0878
11.4664  8.27051
11.4854  7.46335
11.5044  6.87285
11.5234  5.6758
11.5424  4.43984
11.5614  3.48272
11.5804  2.62708
11.5994  1.82673
11.6184  1.16731
11.6374  0.930163
11.6564  0.680052
11.6754  0.491377
11.6944  -0.0894285
11.7134  -0.779874
11.7324  -0.814767
11.7515  -0.590074
11.7705  -0.234804
11.7895  -0.415039
11.8085  -0.67863
11.8275  -0.416978
11.8465  -0.397244
11.8655  -0.117803
11.8845  0.195904
11.9035  1.00749
11.9225  1.89867
11.9415  2.32006
11.9605  2.92903
11.9795  3.6862
11.9985  4.81132
12.0175  6.12588
12.0365  7.48187
12.0555  9.50556
12.0745  11.9236
12.0935  14.8629
12.1125  18.8476
12.1315  23.8414
12.1505  29.9896
12.1695  38.2315
12.1885  47.4853
12.2075  60.6063
12.2265  75.6912
12.2455  94.7726
12.2645  119.251
12.2835  147.176
12.3025  182.555
12.3215  221.605
12.3406  266.166
12.3596  311.471
12.3786  357.543
12.3976  396.778
12.4166  424.405
12.4356  436.14
12.4546  428.312
12.4736  404.661
12.4926  368.207
12.5116  323.185
12.5306  278.64
12.5496  234.002
12.5686  193.394
12.5876  158.44
12.6066  127.231
12.6256  102.264
12.6446  82.4102
12.6636  67.1674
12.6826  56.1984
12.7016  47.004
12.7206  40.5092
12.7396  35.7802
12.7586  32.3857
12.7776  29.7657
12.7966  27.5218
12.8156  25.7812
12.8346  24.3902
12.8536  23.2924
12.8726  22.5454
12.8916  21.5569
12.9106  20.6861
12.9297  19.5007
12.9487  19.3536
12.9677  18.6937
12.9867  18.4743
13.0057  17.1176
13.0247  15.5547
13.0437  14.2223
13.0627  13.5569
13.0817  12.6072
13.1007  11.3255
13.1197  10.3292
13.1387  9.74896
13.1577  9.45409
13.1767  9.06015
13.1957  8.65892
13.2147  8.19218
13.2337  8.25639
13.2527  8.64973
13.2717  8.63389
13.2907  8.46304
13.3097  8.01536
13.3287  7.87729
13.3477  7.77933
13.3667  8.42488
13.3857  8.63446
13.4047  8.79744
13.4237  9.28525
13.4427  9.65104
13.4617  10.1469
13.4807  10.3567
13.4998  10.633
13.5188  10.8455
13.5378  10.9005
13.5568  10.6425
13.5758  10.4574
13.5948  10.178
13.6138  9.81629
13.6328  9.28361
13.6518  8.49622
13.6708  7.94381
13.6898  6.98938
13.7088  6.28356
13.7278  5.22867
13.7468  4.41552
13.7658  4.03435
13.7848  3.71935
13.8038  3.33309
13.8228  2.75614
13.8418  2.27394
13.8608  1.70398
13.8798  1.46186
13.8988  0.879408
13.9178  0.53166
13.9368  0.039302
13.9558  -0.117918
13.9748  -0.435475
13.9938  -0.681148
14.0128  -0.808737
14.0318  -0.729908
14.0508  -0.700595
14.0698  -0.189983
14.0889  0.054881
14.1079  0.39064
14.1269  0.926396
14.1459  1.26877
14.1649  1.75935
14.1839  1.88162
14.2029  2.57866
14.2219  3.06937
14.2409  3.49443
14.2599  3.78932
14.2789  4.12172
14.2979  4.9047
14.3169  5.42911
14.3359  5.55783
14.3549  5.48664
14.3739  5.4745
14.3929  5.67853
14.4119  5.9834
14.4309  6.144
14.4499  5.94332
14.4689  5.65679
14.4879  5.23706
14.5069  4.46519
14.5259  3.96612
14.5449  3.47556
14.5639  3.2351
14.5829  2.69166
14.6019  2.29928
14.6209  1.44639
14.6399  0.955027
14.6589  0.633001
14.678  0.499033
14.697  0.16061
14.716  -0.0254609
14.735  -0.0725926
14.754  0.327232
14.773  0.233742
14.792  -0.159629
14.811  -0.497289
14.83  -0.187449
14.849  -0.245538
14.868  -0.388576
14.887  -0.67081
14.906  -0.110849
14.925  -0.114194
14.944  -0.158492
14.963  -0.21108
14.982  0.0473418
15.001  0.0404277
15.02  -0.164276
15.039  -0.539092
15.058  -0.374666
15.077  -0.162537
15.096  0.307502
15.115  0.17253
15.134  0.0875346
15.153  0.0829871
15.172  0.160243
15.191  0.521858
15.21  0.80772
15.229  1.09619
15.2481  0.754578
15.2671  0.537103
15.2861  0.482629
15.3051  0.550078
15.3241  0.611189
15.3431  0.68121
15.3621  0.524049
15.3811  0.283801
15.4001  0.220579
15.4191  0.293728
15.4381  0.234338
15.4571  0.618222
15.4761  0.93071
15.4951  1.14966
15.5141  1.24728
15.5331  0.99449
15.5521  0.779736
15.5711  0.461607
15.5901  0.516251
15.6091  0.364948
15.6281  0.293466
15.6471  0.195927
15.6661  1.69426
15.6851  2.32941
15.7041  2.02904
15.7231  0.102542
15.7421  0.189877
15.7611  0.239413
15.7801  0.345479
15.7991  0.257456
15.8181  0.402352
15.8372  0.0858091
15.8562  -0.163706
15.8752  0.0244044
15.8942  0.376558
15.9132  0.494781
15.9322  0.649037
15.9512  0.543766
15.9702  0.81813
15.9892  1.1953
16.0082  1.33619
16.0272  1.63461
16.0462  1.82641
16.0652  2.08021
16.0842  2.27235
16.1032  2.79684
16.1222  3.64341
16.1412  4.44409
16.1602  5.29228
16.1792  5.84242
16.1982  6.70038
16.2172  7.56779
16.2362  8.64857
16.2552  9.625
16.2742  11.1115
16.2932  12.6742
16.3122  14.4111
16.3312  16.1605
16.3502  18.0094
16.3692  19.9503
16.3882  22.2333
16.4073  23.7377
16.4263  25.3636
16.4453  26.5721
16.4643  27.6784
16.4833  29.1331
16.5023  30.1382
16.5213  30.7496
16.5403  30.5896
16.5593  30.3383
16.5783  30.0216
16.5973  29.5748
16.6163  29.4625
16.6353  28.8828
16.6543  28.3537
16.6733  27.6777
16.6923  26.7106
16.7113  26.0129
16.7303  25.0129
16.7493  24.041
16.7683  23.1023
16.7873  22.413
16.8063  21.8226
16.8253  21.4379
16.8443  20.8989
16.8633  20.5853
16.8823  20.5176
16.9013  20.3976
16.9203  20.5427
16.9393  20.2146
16.9583  19.6179
16.9773  18.6013
16.9964  17.6888
17.0154  16.7515
17.0344  15.8685
17.0534  14.7923
17.0724  13.1592
17.0914  11.7188
17.1104  10.5099
17.1294  9.41736
17.1484  8.02466
17.1674  6.91161
17.1864  6.07623
17.2054  5.07331
17.2244  4.31048
17.2434  3.89142
17.2624  3.48518
17.2814  3.28037
17.3004  2.88586
17.3194  2.46576
17.3384  2.0446
17.3574  1.57797
17.3764  1.53859
17.3954  1.40353
17.4144  1.64995
17.4334  1.70203
17.4524  1.94268
17.4714  1.94467
17.4904  1.9676
17.5094  1.94342
17.5284  2.12575
17.5474  2.30406
17.5664  2.38603
17.5855  2.47897
17.6045  2.45522
17.6235  2.31931
17.6425  2.28384
17.6615  2.19361
17.6805  2.23416
17.6995  2.34449
17.7185  2.63653
17.7375  2.64757
17.7565  2.70315
17.7755  2.95108
17.7945  3.23506
17.8135  3.39726
17.8325  3.72533
17.8515  4.08953
17.8705  4.43216
17.8895  4.30572
17.9085  4.71569
17.9275  5.25474
17.9465  6.22838
17.9655  7.12202
17.9845  8.10984
18.0035  9.08177
18.0225  10.0958
18.0415  10.932
18.0605  11.9925
18.0795  13.4216
18.0985  15.2518
18.1175  16.947
18.1365  18.8091
18.1556  20.8522
18.1746  23.3723
18.1936  26.2888
18.2126  29.0527
18.2316  32.0256
18.2506  34.9836
18.2696  38.2964
18.2886  41.271
18.3076  44.057
18.3266  47.1433
18.3456  50.0057
18.3646  52.5989
18.3836  54.4289
18.4026  55.9067
18.4216  56.6878
18.4406  56.6457
18.4596  56.1707
18.4786  54.8675
18.4976  52.7395
18.5166  49.3835
18.5356  46.0433
18.5546  42.6427
18.5736  39.0593
18.5926  34.9693
18.6116  30.689
18.6306  26.9792
18.6496  23.4484
18.6686  20.153
18.6876  17.1045
18.7066  14.615
18.7256  12.3707
18.7447  10.1128
18.7637  8.61603
18.7827  7.18493
18.8017  6.31915
18.8207  5.40292
18.8397  5.13555
18.8587  4.60812
18.8777  4.10713
18.8967  3.58797
18.9157  2.83813
18.9347  2.41584
18.9537  2.07451
18.9727  1.83107
18.9917  1.3549
19.0107  0.964621
19.0297  0.366194
19.0487  -0.0747924
19.0677  -0.0743542
19.0867  0.133284
19.1057  0.16253
19.1247  -0.0613393
19.1437  -0.271386
19.1627  -0.396554
19.1817  -0.184579
19.2007  0.113301
19.2197  -0.0600946
19.2387  -0.236747
19.2577  -0.399232
19.2767  -0.44524
19.2957  0.00302311
19.3148  0.241101
19.3338  0.413972
19.3528  0.308022
19.3718  0.27909
19.3908  0.266821
19.4098  0.390751
19.4288  0.593508
19.4478  0.560727
19.4668  0.624975
19.4858  1.06612
19.5048  1.53334
19.5238  1.63087
19.5428  1.62915
19.5618  1.87228
19.5808  2.03439
19.5998  2.0085
19.6188  2.06993
19.6378  1.93242
19.6568  1.57155
19.6758  1.38634
19.6948  1.38153
19.7138  1.18705
19.7328  0.796249
19.7518  0.425513
19.7708  0.234844
19.7898  0.362876
19.8088  0.398126
19.8278  0.214472
19.8468  -0.137707
19.8658  -0.52052
19.8848  -0.317616
19.9039  -0.233055
19.9229  -0.434907
19.9419  -0.548494
19.9609  -0.361475
19.9799  -0.105477
19.9989  -0.033266
20.0179  0.0953695
20.0369  0.248051
20.0559  0.252428
20.0749  0.197775
20.0939  0.131128
20.1129  0.332262
20.1319  0.392566
20.1509  0.376864
20.1699  0.284893
20.1889  0.296665
20.2079  0.374003
20.2269  0.557157
20.2459  0.499512
20.2649  0.528375
20.2839  0.485663
20.3029  0.521825
20.3219  0.559138
20.3409  0.661114
20.3599  0.658299
20.3789  0.7857
20.3979  0.985761
20.4169  0.940346
20.4359  0.98099
20.4549  1.05684
20.4739  1.58566
20.493  1.74305
20.512  1.67549
20.531  1.63188
20.55  1.57348
20.569  1.66716
20.588  1.6582
20.607  1.56745
20.626  1.51679
20.645  1.42477
20.664  1.22572
20.683  1.23016
20.702  1.37012
20.721  1.31616
20.74  1.20511
20.759  1.23678
20.778  1.32066
20.797  1.09763
20.816  1.12164
20.835  1.10752
20.854  1.07235
20.873  0.825423
20.892  0.731436
20.911  0.620529
20.93  0.664137
20.949  0.734066
20.968  0.706798
20.987  0.49367
21.006  0.2445
21.025  0.233619
21.044  0.126049
21.0631  -0.12715
21.0821  -0.148057
21.1011  -0.0525304
21.1201  0.192638
21.1391  0.261617
21.1581  0.185532
21.1771  0.179322
21.1961  0.120711
21.2151  0.196155
21.2341  0.414375
21.2531  0.629237
21.2721  0.685393
21.2911  0.679218
21.3101  0.528908
21.3291  0.148043
21.3481  0.111283
21.3671  0.354463
21.3861  0.486884
21.4051  0.25242
21.4241  -0.118624
21.4431  -0.170001
21.4621  -0.0452082
21.4811  0.0533981
21.5001  0.140577
21.5191  -0.0292152
21.5381  -0.112198
21.5571  -0.0314212
21.5761  0.134466
21.5951  0.268916
21.6141  0.22655
21.6331  0.0553323
21.6522  0.0596402
21.6712  0.284563
21.6902  0.386918
21.7092  0.326716
21.7282  0.0963697
21.7472  0.15862
21.7662  0.256153
21.7852  0.326922
21.8042  0.101093
21.8232  -0.035561
21.8422  -0.140556
21.8612  -0.224853
21.8802  -0.171681
21.8992  -0.0568067
21.9182  0.126893
21.9372  0.273217
21.9562  0.272629
21.9752  0.0183374
21.9942  -0.181066
22.0132  -0.317364
22.0322  0.208125