File: data/processed/Run2_XRD/16_ReMoB2_695psi_noRuby_S_P1_C1_D1w_103.dat
2.93393  0.644381
2.95294  1.19085
2.97194  0.487601
2.99094  -0.089559
3.00995  -0.340713
3.02895  -0.0727016
3.04795  0.0900857
3.06696  0.672495
3.08596  0.814855
3.10496  1.52508
3.12397  1.97601
3.14297  1.86988
3.16197  1.61486
3.18098  0.860694
3.19998  0.586839
3.21898  0.954706
3.23799  1.08105
3.25699  1.27087
3.27599  1.29527
3.295  1.14702
3.314  0.841189
3.333  0.837119
3.35201  0.920538
3.37101  1.89522
3.39001  1.86338
3.40902  1.59788
3.42802  1.71466
3.44702  1.95385
3.46603  2.52901
3.48503  3.36905
3.50403  4.13692
3.52304  5.78228
3.54204  8.21001
3.56104  11.0282
3.58005  12.2505
3.59905  11.0615
3.61805  8.34586
3.63706  6.1584
3.65606  5.0131
3.67506  4.02417
3.69407  3.74048
3.71307  3.39095
3.73207  2.73743
3.75108  1.85373
3.77008  1.49362
3.78908  1.36853
3.80808  0.975071
3.82709  0.746377
3.84609  1.08533
3.86509  1.3183
3.8841  1.18634
3.9031  0.639558
3.9221  0.427424
3.94111  0.319047
3.96011  0.68055
3.97911  0.502769
3.99812  0.127805
4.01712  -0.0385823
4.03612  0.522621
4.05513  1.26968
4.07413  0.957758
4.09313  0.590314
4.11214  0.51013
4.13114  0.704366
4.15014  0.50062
4.16915  0.753374
4.18815  0.656312
4.20715  1.00982
4.22616  0.84504
4.24516  0.711306
4.26416  0.796469
4.28317  0.34248
4.30217  0.434966
4.32117  0.735809
4.34018  1.16601
4.35918  1.21521
4.37818  0.267878
4.39719  0.0574273
4.41619  0.0170753
4.43519  0.763968
4.4542  0.799789
4.4732  0.896431
4.4922  0.820037
4.51121  0.998343
4.53021  1.2363
4.54921  1.07123
4.56822  0.867027
4.58722  0.863823
4.60622  0.906118
4.62523  0.52683
4.64423  0.0732968
4.66323  -0.163208
4.68224  0.251956
4.70124  0.903074
4.72024  0.960786
4.73924  1.09922
4.75825  0.508702
4.77725  0.237403
4.79625  0.194066
4.81526  -0.19936
4.83426  0.0450716
4.85326  0.0954211
4.87227  0.684062
4.89127  0.64569
4.91027  0.595879
4.92928  0.492826
4.94828  1.23454
4.96728  1.01921
4.98629  0.674882
5.00529  0.291203
5.02429  0.825711
5.0433  0.950239
5.0623  0.656872
5.0813  0.31556
5.10031  0.570877
5.11931  0.940988
5.13831  1.23363
5.15732  1.58814
5.17632  1.81368
5.19532  1.58196
5.21433  1.69336
5.23333  1.39379
5.25233  1.7326
5.27134  0.814288
5.29034  0.530154
5.30934  -0.0401293
5.32835  0.250074
5.34735  0.0207425
5.36635  -0.0818631
5.38536  0.0540408
5.40436  -0.150404
5.42336  0.12632
5.44237  0.312122
5.46137  1.02315
5.48037  1.49006
5.49938  1.46318
5.51838  1.19462
5.53738  1.0505
5.55639  1.39166
5.57539  0.962469
5.59439  0.752456
5.6134  0.78508
5.6324  1.10319
5.6514  1.23804
5.67041  1.43642
5.68941  1.14399
5.70841  0.287656
5.72741  -0.20023
5.74642  0.134032
5.76542  0.662448
5.78442  1.0024
5.80343  1.1615
5.82243  1.2591
5.84143  1.07111
5.86044  1.017
5.87944  1.28638
5.89844  1.77828
5.91745  2.355
5.93645  2.14067
5.95545  1.66889
5.97446  2.07736
5.99346  2.22671
6.01246  2.29658
6.03147  1.4259
6.05047  0.759937
6.06947  0.433425
6.08848  0.404312
6.10748  0.683357
6.12648  0.869395
6.14549  0.950684
6.16449  0.798982
6.18349  0.244378
6.2025  -0.194412
6.2215  -0.0144685
6.2405  0.121583
6.25951  -0.0577606
6.27851  0.0600664
6.29751  0.162724
6.31652  0.21908
6.33552  0.109072
6.35452  0.112648
6.37353  0.141325
6.39253  -0.0492339
6.41153  -0.085473
6.43054  0.309523
6.44954  0.716141
6.46854  1.51255
6.48755  1.99898
6.50655  3.02223
6.52555  4.27397
6.54456  6.00797
6.56356  6.76394
6.58256  7.01604
6.60157  5.91574
6.62057  4.30258
6.63957  2.42601
6.65857  0.810443
6.67758  -0.0400904
6.69658  -0.00240951
6.71558  0.508463
6.73459  0.819125
6.75359  0.64907
6.77259  0.7672
6.7916  0.831763
6.8106  0.774873
6.8296  1.3361
6.84861  2.40993
6.86761  3.73949
6.88661  5.03997
6.90562  6.42092
6.92462  7.71113
6.94362  9.01996
6.96263  10.1652
6.98163  10.7656
7.00063  11.3867
7.01964  11.8507
7.03864  12.9577
7.05764  14.8559
7.07665  18.2425
7.09565  22.9979
7.11465  28.8241
7.13366  36.6716
7.15266  43.2467
7.17166  49.922
7.19067  51.5421
7.20967  49.5713
7.22867  44.1828
7.24768  37.9843
7.26668  31.2694
7.28568  25.3328
7.30469  20.4314
7.32369  16.3673
7.34269  13.2611
7.3617  10.1955
7.3807  8.18157
7.3997  6.78535
7.41871  6.13786
7.43771  5.53955
7.45671  4.52006
7.47572  3.72776
7.49472  3.27903
7.51372  2.8921
7.53273  2.68085
7.55173  2.31419
7.57073  2.04558
7.58973  1.56401
7.60874  1.23671
7.62774  1.04834
7.64674  0.969133
7.66575  1.25721
7.68475  1.02875
7.70375  0.479441
7.72276  0.640307
7.74176  0.740797
7.76076  0.810859
7.77977  0.488441
7.79877  0.321361
7.81777  0.0986495
7.83678  0.20698
7.85578  0.151379
7.87478  0.0157219
7.89379  -0.0260993
7.91279  0.220934
7.93179  0.480703
7.9508  0.530137
7.9698  0.587367
7.9888  1.08098
8.00781  1.10809
8.02681  0.722849
8.04581  0.343741
8.06482  0.14114
8.08382  0.38492
8.10282  0.762431
8.12183  0.762386
8.14083  0.659072
8.15983  0.541872
8.17884  0.0475501
8.19784  -0.0909239
8.21684  -0.0704351
8.23585  0.15691
8.25485  0.454601
8.27385  0.473534
8.29286  0.437692
8.31186  0.432792
8.33086  0.418533
8.34987  0.653377
8.36887  0.510703
8.38787  0.226828
8.40688  -0.292933
8.42588  -0.158779
8.44488  0.0507588
8.46389  0.319535
8.48289  0.276248
8.50189  0.15083
8.52089  -0.168482
8.5399  -0.27513
8.5589  0.0356894
8.5779  0.330976
8.59691  0.154462
8.61591  0.152283
8.63491  0.131164
8.65392  0.111586
8.67292  0.064796
8.69192  0.188057
8.71093  0.323314
8.72993  0.482043
8.74893  0.266364
8.76794  0.287319
8.78694  -0.0547326
8.80594  -0.132514
8.82495  -0.0916665
8.84395  0.369625
8.86295  0.632346
8.88196  0.643579
8.90096  0.134873
8.91996  -0.271188
8.93897  -0.30869
8.95797  -0.192526
8.97697  0.223974
8.99598  0.579563
9.01498  0.736461
9.03398  0.928305
9.05299  1.24488
9.07199  2.17867
9.09099  3.06521
9.11  3.7233
9.129  4.43295
9.148  5.31218
9.16701  6.35519
9.18601  7.77787
9.20501  9.39452
9.22402  11.3391
9.24302  13.8075
9.26202  17.3514
9.28103  21.7345
9.30003  27.158
9.31903  34.585
9.33804  45.3099
9.35704  59.5583
9.37604  77.9946
9.39505  101.552
9.41405  132.916
9.43305  167.638
9.45206  205.248
9.47106  238.847
9.49006  265.411
9.50906  280.815
9.52807  285.369
9.54707  281.078
9.56607  269.613
9.58508  252.186
9.60408  232.344
9.62308  212.464
9.64209  193.493
9.66109  176.166
9.68009  160.678
9.6991  148.132
9.7181  137.453
9.7371  129.577
9.75611  123.187
9.77511  118.566
9.79411  114.148
9.81312  110.785
9.83212  109.077
9.85112  107.478
9.87013  107.069
9.88913  105.596
9.90813  102.482
9.92714  97.5219
9.94614  91.4785
9.96514  84.4653
9.98415  77.6726
10.0031  70.685
10.0222  64.2739
10.0412  57.8855
10.0602  52.1639
10.0792  46.3224
10.0982  40.2739
10.1172  34.5299
10.1362  29.5357
10.1552  25.0863
10.1742  20.6554
10.1932  16.7529
10.2122  13.4801
10.2312  10.6741
10.2502  8.56978
10.2692  6.63358
10.2882  5.09776
10.3072  3.68321
10.3262  2.74793
10.3452  1.84114
10.3642  0.819428
10.3832  0.177829
10.4022  -0.294859
10.4212  -0.893203
10.4402  -1.25067
10.4592  -1.22451
10.4782  -0.765095
10.4972  -0.681518
10.5162  -0.603156
10.5352  -0.512263
10.5542  0.142516
10.5732  1.16252
10.5923  2.53429
10.6113  3.37399
10.6303  3.91075
10.6493  4.42632
10.6683  4.4933
10.6873  4.23399
10.7063  3.9388
10.7253  3.92411
10.7443  3.94436
10.7633  3.59446
10.7823  3.11929
10.8013  2.63842
10.8203  2.30057
10.8393  2.17267
10.8583  2.03623
10.8773  2.14694
10.8963  2.46751
10.9153  2.82897
10.9343  2.83773
10.9533  3.14266
10.9723  3.14865
10.9913  3.39312
11.0103  3.54602
11.0293  4.02937
11.0483  3.68091
11.0673  3.30464
11.0863  3.28059
11.1053  3.60055
11.1243  3.98589
11.1433  4.07445
11.1623  4.07813
11.1814  3.98547
11.2004  4.07185
11.2194  4.39569
11.2384  4.71542
11.2574  5.26267
11.2764  5.55508
11.2954  6.2262
11.3144  6.91099
11.3334  7.63411
11.3524  7.70863
11.3714  7.76757
11.3904  7.61823
11.4094  7.78129
11.4284  7.66397
11.4474  7.23673
11.4664  6.82653
11.4854  6.28723
11.5044  5.61414
11.5234  4.88287
11.5424  3.95338
11.5614  3.47485
11.5804  2.71449
11.5994  1.93835
11.6184  1.15255
11.6374  0.937163
11.6564  0.764857
11.6754  0.627584
11.6944  0.265039
11.7134  0.0940483
11.7324  0.165642
11.7515  -0.00502801
11.7705  -0.431766
11.7895  -1.12408
11.8085  -1.13851
11.8275  -0.650539
11.8465  -0.0953329
11.8655  0.158643
11.8845  -0.0241478
11.9035  0.159892
11.9225  0.420689
11.9415  0.699585
11.9605  1.44329
11.9795  2.28661
11.9985  3.52959
12.0175  4.82387
12.0365  6.0414
12.0555  7.01773
12.0745  8.49143
12.0935  10.479
12.1125  12.9338
12.1315  16.1624
12.1505  19.6962
12.1695  24.7538
12.1885  30.5466
12.2075  38.8427
12.2265  48.5386
12.2455  60.6649
12.2645  77.1281
12.2835  96.8166
12.3025  122.524
12.3215  153.194
12.3406  189.176
12.3596  231.095
12.3786  277.641
12.3976  326.641
12.4166  374.311
12.4356  415.128
12.4546  442.718
12.4736  456.238
12.4926  451.811
12.5116  431.132
12.5306  398.227
12.5496  355.011
12.5686  308.22
12.5876  263.306
12.6066  219.311
12.6256  180.784
12.6446  145.268
12.6636  117.014
12.6826  94.078
12.7016  75.8493
12.7206  62.165
12.7396  51.8562
12.7586  44.383
12.7776  38.917
12.7966  34.1744
12.8156  30.7216
12.8346  28.1127
12.8536  26.2557
12.8726  24.1233
12.8916  22.8008
12.9106  21.5228
12.9297  20.5476
12.9487  19.4917
12.9677  18.8571
12.9867  17.9275
13.0057  16.8294
13.0247  15.8435
13.0437  14.9917
13.0627  14.2938
13.0817  13.5107
13.1007  12.2847
13.1197  11.1545
13.1387  10.1075
13.1577  9.17783
13.1767  8.46773
13.1957  7.81698
13.2147  7.58206
13.2337  7.42538
13.2527  7.0241
13.2717  6.6833
13.2907  6.27479
13.3097  6.33301
13.3287  6.37996
13.3477  6.46959
13.3667  6.39437
13.3857  6.50845
13.4047  6.71442
13.4237  6.58314
13.4427  6.6583
13.4617  6.89868
13.4807  7.46103
13.4998  7.57442
13.5188  7.83824
13.5378  8.09186
13.5568  7.87741
13.5758  7.72249
13.5948  7.59385
13.6138  7.86387
13.6328  7.65005
13.6518  7.1982
13.6708  6.69827
13.6898  6.35705
13.7088  5.88635
13.7278  5.40551
13.7468  4.87861
13.7658  4.32417
13.7848  3.9054
13.8038  3.57126
13.8228  3.17682
13.8418  2.76792
13.8608  2.08943
13.8798  1.67249
13.8988  1.1607
13.9178  0.930299
13.9368  0.770333
13.9558  0.59079
13.9748  0.374615
13.9938  -0.00335165
14.0128  -0.62923
14.0318  -0.926155
14.0508  -0.817251
14.0698  -0.625765
14.0889  -0.125143
14.1079  0.321898
14.1269  1.16448
14.1459  1.40487
14.1649  2.02246
14.1839  2.52757
14.2029  3.09601
14.2219  2.86672
14.2409  3.1517
14.2599  3.39312
14.2789  3.87905
14.2979  4.32767
14.3169  5.11075
14.3359  5.6704
14.3549  5.97139
14.3739  6.14801
14.3929  6.50946
14.4119  6.53683
14.4309  6.28117
14.4499  6.19058
14.4689  6.1766
14.4879  6.17788
14.5069  5.68982
14.5259  5.19754
14.5449  4.7183
14.5639  4.38467
14.5829  4.07917
14.6019  3.77934
14.6209  3.11559
14.6399  2.34332
14.6589  1.61375
14.678  0.981071
14.697  0.756641
14.716  0.369083
14.735  0.170888
14.754  0.0196034
14.773  -0.127694
14.792  -0.180512
14.811  -0.0757691
14.83  -0.119333
14.849  0.0526931
14.868  0.0891134
14.887  0.112758
14.906  0.210474
14.925  0.325736
14.944  0.177059
14.963  -0.234142
14.982  -0.441649
15.001  -0.452582
15.02  -0.448978
15.039  -0.15945
15.058  0.0827891
15.077  -0.0308615
15.096  0.0732932
15.115  -0.237315
15.134  0.00274459
15.153  -0.0516954
15.172  0.0354133
15.191  -0.273027
15.21  -0.199689
15.229  0.0522999
15.2481  0.279592
15.2671  0.406468
15.2861  0.608329
15.3051  0.66154
15.3241  0.39597
15.3431  0.640568
15.3621  0.632224
15.3811  0.569156
15.4001  0.738692
15.4191  0.867116
15.4381  1.13811
15.4571  1.40059
15.4761  1.31514
15.4951  1.38056
15.5141  1.29545
15.5331  1.55813
15.5521  1.34153
15.5711  1.19708
15.5901  1.04626
15.6091  0.834658
15.6281  0.776773
15.6471  0.781059
15.6661  0.697104
15.6851  0.367908
15.7041  0.390481
15.7231  0.475498
15.7421  0.343115
15.7611  0.108838
15.7801  0.0633506
15.7991  0.403922
15.8181  0.494634
15.8372  0.290661
15.8562  0.147092
15.8752  0.155876
15.8942  0.23894
15.9132  -0.135392
15.9322  -0.0326036
15.9512  0.00410697
15.9702  0.13391
15.9892  0.0410804
16.0082  0.30158
16.0272  0.809184
16.0462  1.48774
16.0652  1.79449
16.0842  1.69268
16.1032  1.38109
16.1222  1.86606
16.1412  2.15899
16.1602  2.90754
16.1792  3.92288
16.1982  5.00854
16.2172  5.81077
16.2362  6.48842
16.2552  7.35542
16.2742  8.30482
16.2932  9.65087
16.3122  11.2491
16.3312  13.0856
16.3502  14.8042
16.3692  16.8462
16.3882  18.9885
16.4073  21.0442
16.4263  23.2503
16.4453  25.1773
16.4643  26.74
16.4833  28.6706
16.5023  30.2948
16.5213  31.676
16.5403  32.6014
16.5593  33.0184
16.5783  33.2694
16.5973  32.664
16.6163  32.6775
16.6353  32.4643
16.6543  32.1712
16.6733  31.5274
16.6923  30.7065
16.7113  29.9041
16.7303  28.274
16.7493  26.8079
16.7683  25.9097
16.7873  25.0636
16.8063  23.8194
16.8253  23.1209
16.8443  22.2459
16.8633  21.3147
16.8823  20.4425
16.9013  20.0097
16.9203  19.7407
16.9393  19.3768
16.9583  19.0113
16.9773  18.2904
16.9964  17.7284
17.0154  16.8747
17.0344  16.0855
17.0534  14.9689
17.0724  14.3294
17.0914  13.2238
17.1104  12.1646
17.1294  11.0616
17.1484  10.2018
17.1674  9.07292
17.1864  8.37338
17.2054  7.26102
17.2244  5.96929
17.2434  4.83149
17.2624  4.40826
17.2814  4.38115
17.3004  3.76287
17.3194  3.12625
17.3384  2.55037
17.3574  2.37941
17.3764  2.30874
17.3954  2.20916
17.4144  1.91558
17.4334  1.81922
17.4524  1.88266
17.4714  2.32146
17.4904  2.66832
17.5094  2.33995
17.5284  2.07938
17.5474  1.86375
17.5664  1.91252
17.5855  1.9218
17.6045  2.09403
17.6235  2.36132
17.6425  2.44785
17.6615  2.5352
17.6805  2.47726
17.6995  2.32836
17.7185  2.19642
17.7375  2.21128
17.7565  2.33674
17.7755  2.69862
17.7945  2.60966
17.8135  2.63461
17.8325  2.912
17.8515  2.9241
17.8705  3.28813
17.8895  3.52245
17.9085  4.12185
17.9275  4.51089
17.9465  4.7737
17.9655  5.22568
17.9845  5.93525
18.0035  6.57606
18.0225  7.21974
18.0415  7.69261
18.0605  8.33399
18.0795  9.06212
18.0985  9.95739
18.1175  11.4588
18.1365  13.2494
18.1556  15.1371
18.1746  16.5153
18.1936  18.3212
18.2126  20.433
18.2316  22.8272
18.2506  25.441
18.2696  28.3717
18.2886  31.2001
18.3076  34.0855
18.3266  37.3526
18.3456  40.3634
18.3646  42.958
18.3836  45.3769
18.4026  47.7511
18.4216  49.9391
18.4406  51.7637
18.4596  52.7049
18.4786  53.0888
18.4976  52.5822
18.5166  51.6595
18.5356  50.4379
18.5546  48.6634
18.5736  45.9561
18.5926  42.6628
18.6116  38.9638
18.6306  35.5429
18.6496  31.7347
18.6686  28.1605
18.6876  24.2693
18.7066  21.0176
18.7256  17.7178
18.7447  14.7735
18.7637  12.5905
18.7827  10.3755
18.8017  8.41007
18.8207  6.83422
18.8397  5.95393
18.8587  5.01252
18.8777  4.2743
18.8967  3.92499
18.9157  3.59986
18.9347  3.20785
18.9537  2.76374
18.9727  2.46403
18.9917  2.20942
19.0107  1.89795
19.0297  1.51872
19.0487  1.26088
19.0677  0.816151
19.0867  0.526005
19.1057  0.185422
19.1247  -0.0804618
19.1437  -0.19737
19.1627  -0.297689
19.1817  -0.294575
19.2007  -0.437614
19.2197  -0.263808
19.2387  0.0614058
19.2577  0.0688147
19.2767  -0.15245
19.2957  -0.166437
19.3148  -0.00763356
19.3338  0.0213159
19.3528  -0.0523027
19.3718  -0.0364283
19.3908  0.0866244
19.4098  0.166158
19.4288  0.281039
19.4478  0.325446
19.4668  0.538112
19.4858  0.572065
19.5048  0.554288
19.5238  0.413002
19.5428  0.541223
19.5618  0.468801
19.5808  0.458573
19.5998  0.58721
19.6188  0.971181
19.6378  0.973763
19.6568  0.996151
19.6758  1.11109
19.6948  1.41236
19.7138  1.40335
19.7328  1.16799
19.7518  0.847996
19.7708  0.757361
19.7898  0.501399
19.8088  0.159816
19.8278  0.114247
19.8468  0.24463
19.8658  0.333816
19.8848  0.0483487
19.9039  -0.140684
19.9229  -0.310822
19.9419  -0.319282
19.9609  -0.29523
19.9799  -0.243712
19.9989  -0.359255
20.0179  -0.275996
20.0369  -0.203546
20.0559  0.208641
20.0749  0.299932
20.0939  0.258567
20.1129  0.199183
20.1319  0.239035
20.1509  0.257853
20.1699  0.298679
20.1889  0.517253
20.2079  0.562269
20.2269  0.516191
20.2459  0.378997
20.2649  0.308541
20.2839  0.273586
20.3029  0.260978
20.3219  0.0936107
20.3409  0.0176284
20.3599  0.424426
20.3789  0.833241
20.3979  0.988371
20.4169  0.877713
20.4359  0.800381
20.4549  0.893719
20.4739  1.07203
20.493  1.28967
20.512  1.42451
20.531  1.36758
20.55  1.6609
20.569  1.71847
20.588  1.80412
20.607  2.16457
20.626  2.57331
20.645  2.45901
20.664  2.0618
20.683  1.67719
20.702  1.68509
20.721  1.75011
20.74  1.76773
20.759  1.71011
20.778  1.74103
20.797  1.86272
20.816  1.85305
20.835  1.59761
20.854  1.36898
20.873  1.21042
20.892  0.905643
20.911  0.914807
20.93  0.94743
20.949  1.09272
20.968  0.993109
20.987  0.930679
21.006  0.754428
21.025  0.657727
21.044  0.53342
21.0631  0.418658
21.0821  0.193521
21.1011  0.0536528
21.1201  0.168035
21.1391  0.339372
21.1581  0.393995
21.1771  0.259551
21.1961  0.424855
21.2151  0.506441
21.2341  0.752459
21.2531  0.900228
21.2721  0.819976
21.2911  0.796715
21.3101  0.456306
21.3291  0.31929
21.3481  0.141381
21.3671  0.067401
21.3861  0.132186
21.4051  0.0168211
21.4241  0.0622982
21.4431  0.101669
21.4621  0.184318
21.4811  -0.0803995
21.5001  -0.207191
21.5191  -0.0205306
21.5381  0.176116
21.5571  0.215536
21.5761  0.162464
21.5951  0.130775
21.6141  0.107864
21.6331  0.0416051
21.6522  -0.0464672
21.6712  0.115813
21.6902  0.309141
21.7092  0.41293
21.7282  0.291108
21.7472  0.17266
21.7662  0.104603
21.7852  0.0730327
21.8042  0.104865
21.8232  0.0123589
21.8422  -0.14727
21.8612  -0.25875
21.8802  -0.240899
21.8992  -0.0865563
21.9182  0.139877
21.9372  0.288467
21.9562  0.312338
21.9752  0.136115
21.9942  -0.203182
22.0132  -0.472064
22.0322  0.281087