File: data/processed/Run2_XRD/17_ReMoB2_725psi_noRuby_S_P1_C1_D1w_109.dat
2.93393  0.397314
2.95294  0.377215
2.97194  0.288096
2.99094  0.131132
3.00995  0.0899378
3.02895  0.177208
3.04795  0.221944
3.06696  0.0661779
3.08596  0.420609
3.10496  0.468484
3.12397  0.619123
3.14297  0.395934
3.16197  0.403331
3.18098  0.521834
3.19998  0.772223
3.21898  0.653641
3.23799  1.38441
3.25699  1.47361
3.27599  2.21245
3.295  1.77617
3.314  1.8536
3.333  1.14581
3.35201  1.04955
3.37101  0.742637
3.39001  1.08956
3.40902  1.4162
3.42802  1.5922
3.44702  2.10891
3.46603  2.74435
3.48503  3.0073
3.50403  3.6162
3.52304  5.34847
3.54204  7.88707
3.56104  11.3729
3.58005  14.0159
3.59905  15.4126
3.61805  13.8729
3.63706  11.0511
3.65606  7.9128
3.67506  5.38564
3.69407  3.69961
3.71307  3.03229
3.73207  2.28935
3.75108  1.68069
3.77008  2.00678
3.78908  2.50037
3.80808  2.34225
3.82709  1.54286
3.84609  0.843103
3.86509  0.855394
3.8841  1.10013
3.9031  1.33547
3.9221  1.18336
3.94111  1.21092
3.96011  1.45793
3.97911  1.53677
3.99812  0.98051
4.01712  0.357101
4.03612  -0.0779269
4.05513  -0.0117302
4.07413  0.399863
4.09313  0.9267
4.11214  1.57658
4.13114  1.36068
4.15014  1.012
4.16915  0.720276
4.18815  0.516678
4.20715  0.801079
4.22616  1.34992
4.24516  1.15607
4.26416  1.12138
4.28317  0.810072
4.30217  1.26871
4.32117  1.83644
4.34018  1.62454
4.35918  1.264
4.37818  0.57784
4.39719  -0.0833219
4.41619  0.102358
4.43519  0.14471
4.4542  0.842577
4.4732  1.47952
4.4922  1.80448
4.51121  1.63836
4.53021  0.897062
4.54921  0.91551
4.56822  0.831621
4.58722  0.35278
4.60622  0.58397
4.62523  0.51615
4.64423  0.204533
4.66323  -0.305199
4.68224  0.209086
4.70124  0.693115
4.72024  1.29353
4.73924  1.0314
4.75825  1.15741
4.77725  1.01472
4.79625  1.84662
4.81526  1.39564
4.83426  0.968423
4.85326  0.461191
4.87227  0.406042
4.89127  0.746819
4.91027  0.945044
4.92928  0.781915
4.94828  0.659771
4.96728  0.554033
4.98629  0.656943
5.00529  1.05725
5.02429  1.22393
5.0433  1.30245
5.0623  0.875412
5.0813  0.333325
5.10031  0.0140689
5.11931  0.375756
5.13831  0.57071
5.15732  0.920817
5.17632  0.431517
5.19532  0.146924
5.21433  -0.069948
5.23333  0.508769
5.25233  1.32555
5.27134  1.90112
5.29034  1.90138
5.30934  1.38944
5.32835  0.982334
5.34735  0.404838
5.36635  0.284876
5.38536  0.575682
5.40436  0.402185
5.42336  0.694983
5.44237  0.33443
5.46137  0.739899
5.48037  0.399637
5.49938  0.812999
5.51838  0.623554
5.53738  0.858589
5.55639  0.335336
5.57539  0.340351
5.59439  -0.111702
5.6134  -0.1454
5.6324  0.0832776
5.6514  0.642793
5.67041  0.986318
5.68941  0.660217
5.70841  0.210639
5.72741  0.304356
5.74642  0.304555
5.76542  0.289285
5.78442  -0.0593417
5.80343  0.380789
5.82243  1.04157
5.84143  1.26637
5.86044  0.901617
5.87944  0.55995
5.89844  0.690471
5.91745  1.3092
5.93645  1.44971
5.95545  1.39642
5.97446  1.3065
5.99346  1.29146
6.01246  0.953957
6.03147  0.736788
6.05047  1.27139
6.06947  1.50762
6.08848  1.07567
6.10748  0.799968
6.12648  0.713649
6.14549  1.00011
6.16449  0.999266
6.18349  0.567431
6.2025  0.0721592
6.2215  -0.250745
6.2405  -0.238399
6.25951  -0.0887561
6.27851  0.424399
6.29751  0.859802
6.31652  0.951058
6.33552  0.569971
6.35452  0.476025
6.37353  0.301808
6.39253  0.193224
6.41153  0.609997
6.43054  0.454497
6.44954  0.722357
6.46854  0.863569
6.48755  1.01997
6.50655  1.39242
6.52555  2.0398
6.54456  3.71969
6.56356  4.97289
6.58256  6.18509
6.60157  6.15646
6.62057  5.44481
6.63957  3.8347
6.65857  2.61911
6.67758  1.53681
6.69658  0.739838
6.71558  0.307994
6.73459  0.344966
6.75359  0.45277
6.77259  0.583374
6.7916  0.615708
6.8106  0.876263
6.8296  0.995335
6.84861  1.29543
6.86761  1.95954
6.88661  2.90165
6.90562  4.24758
6.92462  5.3905
6.94362  6.56901
6.96263  8.17379
6.98163  9.03105
7.00063  9.62475
7.01964  9.79624
7.03864  10.7389
7.05764  11.987
7.07665  15.3709
7.09565  19.759
7.11465  25.5414
7.13366  34.1217
7.15266  42.4971
7.17166  53.7069
7.19067  59.5243
7.20967  61.5156
7.22867  58.0719
7.24768  52.8217
7.26668  44.9307
7.28568  37.8987
7.30469  31.6672
7.32369  25.4974
7.34269  20.6244
7.3617  16.3357
7.3807  13.589
7.3997  11.2117
7.41871  9.61567
7.43771  8.22729
7.45671  6.78683
7.47572  5.63705
7.49472  4.83909
7.51372  4.54747
7.53273  4.20066
7.55173  3.57983
7.57073  3.02685
7.58973  2.24202
7.60874  2.2619
7.62774  2.13674
7.64674  1.9631
7.66575  1.66552
7.68475  1.75658
7.70375  1.16844
7.72276  1.01967
7.74176  0.791809
7.76076  0.610254
7.77977  0.156882
7.79877  -0.204084
7.81777  -0.310519
7.83678  -0.0134754
7.85578  0.0829913
7.87478  0.356903
7.89379  0.0442428
7.91279  -0.00687955
7.93179  0.268236
7.9508  0.270125
7.9698  0.633508
7.9888  1.03881
8.00781  1.00605
8.02681  0.700244
8.04581  0.356604
8.06482  0.266249
8.08382  0.328541
8.10282  0.316281
8.12183  0.0999229
8.14083  0.0459796
8.15983  0.407605
8.17884  0.709723
8.19784  0.288918
8.21684  0.483329
8.23585  0.619909
8.25485  1.00625
8.27385  0.826287
8.29286  0.542253
8.31186  0.709244
8.33086  0.923013
8.34987  1.04959
8.36887  0.807184
8.38787  0.352874
8.40688  0.199684
8.42588  0.119236
8.44488  0.347125
8.46389  0.227015
8.48289  0.0119829
8.50189  -0.459835
8.52089  -0.130432
8.5399  0.231866
8.5589  0.73606
8.5779  1.07886
8.59691  0.661909
8.61591  0.493274
8.63491  0.206459
8.65392  0.362098
8.67292  0.313138
8.69192  0.233027
8.71093  -0.0896727
8.72993  -0.309338
8.74893  -0.527359
8.76794  -0.441142
8.78694  -0.740129
8.80594  -0.381496
8.82495  -0.32242
8.84395  -0.0619016
8.86295  -0.259155
8.88196  0.0472741
8.90096  -0.191728
8.91996  0.0599207
8.93897  0.11527
8.95797  0.560771
8.97697  0.782242
8.99598  0.681016
9.01498  0.767198
9.03398  0.855815
9.05299  1.00264
9.07199  1.35251
9.09099  2.1968
9.11  3.10514
9.129  3.67604
9.148  4.34451
9.16701  5.12461
9.18601  6.25204
9.20501  7.59454
9.22402  9.40047
9.24302  11.5992
9.26202  13.9456
9.28103  17.283
9.30003  20.8781
9.31903  26.278
9.33804  33.2128
9.35704  42.7767
9.37604  55.4952
9.39505  71.4115
9.41405  94.3963
9.43305  122.166
9.45206  156.763
9.47106  193.603
9.49006  228.898
9.50906  259.331
9.52807  278.2
9.54707  288.202
9.56607  286.494
9.58508  276.157
9.60408  258.063
9.62308  236.625
9.64209  214.54
9.66109  193.894
9.68009  174.928
9.6991  158.652
9.7181  145.221
9.7371  133.875
9.75611  124.884
9.77511  118.318
9.79411  113.436
9.81312  111.213
9.83212  110.097
9.85112  109.71
9.87013  110.301
9.88913  110.553
9.90813  109.604
9.92714  106.826
9.94614  102.905
9.96514  97.5662
9.98415  91.1736
10.0031  83.5556
10.0222  76.0825
10.0412  69.1317
10.0602  62.3574
10.0792  55.565
10.0982  48.6475
10.1172  42.4357
10.1362  36.1626
10.1552  30.4655
10.1742  25.2859
10.1932  21.1968
10.2122  17.397
10.2312  13.9626
10.2502  10.9796
10.2692  8.58182
10.2882  6.72313
10.3072  5.53763
10.3262  4.13039
10.3452  2.90161
10.3642  2.15812
10.3832  1.67434
10.4022  1.15404
10.4212  0.349766
10.4402  -0.387696
10.4592  -0.779377
10.4782  -1.02834
10.4972  -1.20137
10.5162  -1.02926
10.5352  -0.920283
10.5542  -0.619564
10.5732  -0.740479
10.5923  -0.354277
10.6113  0.312647
10.6303  0.846965
10.6493  1.4865
10.6683  1.96712
10.6873  2.3022
10.7063  2.49189
10.7253  2.61032
10.7443  2.62267
10.7633  2.64252
10.7823  2.95225
10.8013  3.37707
10.8203  3.49632
10.8393  3.35455
10.8583  3.08734
10.8773  3.24644
10.8963  2.98944
10.9153  2.5477
10.9343  2.09515
10.9533  2.14094
10.9723  2.22298
10.9913  2.14487
11.0103  1.92767
11.0293  1.99678
11.0483  2.0563
11.0673  1.74479
11.0863  1.80069
11.1053  1.79526
11.1243  2.44575
11.1433  2.82921
11.1623  3.21192
11.1814  3.16139
11.2004  3.27773
11.2194  3.66236
11.2384  4.29595
11.2574  4.92525
11.2764  5.96734
11.2954  6.17387
11.3144  6.82928
11.3334  7.20648
11.3524  7.7038
11.3714  8.08397
11.3904  8.57883
11.4094  9.13077
11.4284  9.06312
11.4474  8.87026
11.4664  8.25374
11.4854  7.46275
11.5044  6.82223
11.5234  5.66888
11.5424  4.97903
11.5614  4.02325
11.5804  3.62158
11.5994  2.77859
11.6184  2.331
11.6374  1.82643
11.6564  1.77037
11.6754  1.33389
11.6944  0.788825
11.7134  0.249107
11.7324  -0.0645138
11.7515  -0.282022
11.7705  -0.283914
11.7895  -0.434227
11.8085  -0.820131
11.8275  -0.723105
11.8465  -0.973584
11.8655  -0.71435
11.8845  -0.643991
11.9035  -0.266841
11.9225  0.202311
11.9415  0.589334
11.9605  1.14704
11.9795  1.59913
11.9985  2.36016
12.0175  3.16924
12.0365  4.32274
12.0555  5.25637
12.0745  6.42558
12.0935  7.56931
12.1125  9.42855
12.1315  12.058
12.1505  15.3699
12.1695  19.1125
12.1885  23.2442
12.2075  28.763
12.2265  35.5253
12.2455  44.0254
12.2645  55.8185
12.2835  69.609
12.3025  88.7328
12.3215  112.332
12.3406  141.52
12.3596  176.728
12.3786  217.772
12.3976  263.159
12.4166  314.091
12.4356  364.868
12.4546  411.531
12.4736  445.988
12.4926  464.743
12.5116  465.155
12.5306  449.289
12.5496  419.086
12.5686  378.067
12.5876  333.133
12.6066  285.223
12.6256  241.026
12.6446  198.603
12.6636  163.588
12.6826  132.844
12.7016  106.69
12.7206  85.8997
12.7396  69.6571
12.7586  57.3814
12.7776  48.3409
12.7966  41.3488
12.8156  35.7594
12.8346  31.5581
12.8536  28.389
12.8726  26.1098
12.8916  24.2525
12.9106  22.3856
12.9297  20.7516
12.9487  19.755
12.9677  19.3411
12.9867  18.6668
13.0057  17.7101
13.0247  16.3407
13.0437  15.1489
13.0627  13.9781
13.0817  13.2648
13.1007  12.733
13.1197  12.1018
13.1387  11.6306
13.1577  10.7283
13.1767  9.91848
13.1957  9.18258
13.2147  8.66689
13.2337  8.29786
13.2527  8.04822
13.2717  7.93608
13.2907  7.96645
13.3097  7.91007
13.3287  7.7837
13.3477  7.80268
13.3667  7.58661
13.3857  7.24506
13.4047  7.18221
13.4237  7.71972
13.4427  8.11357
13.4617  8.40379
13.4807  8.76694
13.4998  9.2265
13.5188  9.55403
13.5378  9.48167
13.5568  9.73734
13.5758  9.87778
13.5948  10.2373
13.6138  10.3955
13.6328  10.3837
13.6518  9.90998
13.6708  9.49265
13.6898  8.7775
13.7088  8.07671
13.7278  7.26602
13.7468  6.34837
13.7658  5.51204
13.7848  5.07727
13.8038  4.90981
13.8228  4.23449
13.8418  3.31426
13.8608  2.6209
13.8798  2.32407
13.8988  2.04361
13.9178  1.55342
13.9368  1.15721
13.9558  0.572104
13.9748  0.222401
13.9938  -0.112068
14.0128  -0.365971
14.0318  -0.368884
14.0508  -0.646067
14.0698  -0.667884
14.0889  -0.953742
14.1079  -0.732478
14.1269  -0.599334
14.1459  0.0859494
14.1649  0.526581
14.1839  1.11527
14.2029  1.31098
14.2219  1.2628
14.2409  1.5762
14.2599  2.20188
14.2789  2.80751
14.2979  3.49292
14.3169  3.96791
14.3359  4.79249
14.3549  5.44737
14.3739  6.15122
14.3929  6.77282
14.4119  7.50178
14.4309  8.07475
14.4499  8.13464
14.4689  7.76512
14.4879  7.06691
14.5069  6.88004
14.5259  6.59141
14.5449  6.51192
14.5639  5.91195
14.5829  5.30701
14.6019  4.7829
14.6209  4.16738
14.6399  3.59619
14.6589  2.84815
14.678  2.32686
14.697  1.96286
14.716  1.37911
14.735  1.04055
14.754  0.548102
14.773  0.577888
14.792  0.347556
14.811  0.189408
14.83  -0.0103887
14.849  -0.315358
14.868  -0.486422
14.887  -0.409366
14.906  -0.0597555
14.925  0.538034
14.944  0.41496
14.963  0.0924466
14.982  -0.227352
15.001  -0.189393
15.02  -0.0865164
15.039  -0.0901944
15.058  -0.0230862
15.077  -0.211527
15.096  -0.0357139
15.115  0.217091
15.134  0.435184
15.153  0.34745
15.172  0.200536
15.191  0.120421
15.21  0.206373
15.229  0.25031
15.2481  0.360152
15.2671  0.358419
15.2861  0.331546
15.3051  -0.0813107
15.3241  -0.0259026
15.3431  0.248388
15.3621  0.574996
15.3811  0.492109
15.4001  0.303504
15.4191  0.121976
15.4381  0.229233
15.4571  0.503978
15.4761  0.68397
15.4951  0.718984
15.5141  0.858905
15.5331  0.934986
15.5521  0.888176
15.5711  0.705342
15.5901  0.779157
15.6091  0.695701
15.6281  0.878068
15.6471  0.895441
15.6661  0.915239
15.6851  0.589957
15.7041  0.407701
15.7231  0.433095
15.7421  0.286064
15.7611  0.352849
15.7801  0.0602791
15.7991  0.0111143
15.8181  0.00531406
15.8372  0.234859
15.8562  0.216746
15.8752  0.0660893
15.8942  0.00960668
15.9132  0.0481835
15.9322  -0.129447
15.9512  -0.0663988
15.9702  -0.0667324
15.9892  0.0223475
16.0082  0.127111
16.0272  0.22483
16.0462  0.602139
16.0652  0.494211
16.0842  0.739389
16.1032  0.966505
16.1222  1.63871
16.1412  1.97096
16.1602  2.42928
16.1792  2.68093
16.1982  3.20313
16.2172  3.59871
16.2362  4.42381
16.2552  5.33732
16.2742  6.27118
16.2932  7.21736
16.3122  8.32684
16.3312  9.54553
16.3502  10.7597
16.3692  12.1815
16.3882  13.9934
16.4073  15.9289
16.4263  18.1407
16.4453  19.7668
16.4643  21.2595
16.4833  23.1778
16.5023  24.9473
16.5213  26.3691
16.5403  28.0041
16.5593  29.2603
16.5783  30.0429
16.5973  30.1406
16.6163  30.2028
16.6353  30.0826
16.6543  29.9798
16.6733  29.9968
16.6923  29.4047
16.7113  28.4767
16.7303  27.7401
16.7493  27.3662
16.7683  27.1083
16.7873  26.2944
16.8063  25.4133
16.8253  24.5968
16.8443  23.7776
16.8633  22.7558
16.8823  21.7463
16.9013  20.9158
16.9203  20.0071
16.9393  19.363
16.9583  18.7943
16.9773  18.257
16.9964  18.0364
17.0154  18.21
17.0344  18.3619
17.0534  17.6322
17.0724  16.8047
17.0914  16.0019
17.1104  15.9411
17.1294  15.4732
17.1484  14.5472
17.1674  13.2895
17.1864  12.0475
17.2054  10.7572
17.2244  9.3951
17.2434  8.28592
17.2624  7.4607
17.2814  6.77971
17.3004  5.71463
17.3194  4.98855
17.3384  4.32019
17.3574  4.0268
17.3764  3.62669
17.3954  3.30415
17.4144  2.646
17.4334  2.23233
17.4524  1.97776
17.4714  2.09013
17.4904  1.95538
17.5094  1.80805
17.5284  1.76458
17.5474  2.0093
17.5664  1.77405
17.5855  1.52131
17.6045  1.4733
17.6235  1.48828
17.6425  1.71102
17.6615  2.15445
17.6805  2.36379
17.6995  2.12918
17.7185  1.91493
17.7375  1.9449
17.7565  1.96626
17.7755  2.1092
17.7945  2.08309
17.8135  2.47579
17.8325  2.73095
17.8515  2.6015
17.8705  2.40924
17.8895  2.85764
17.9085  3.22977
17.9275  3.68609
17.9465  3.97064
17.9655  4.14151
17.9845  4.27931
18.0035  4.74369
18.0225  5.63842
18.0415  6.06196
18.0605  6.41335
18.0795  6.94382
18.0985  8.14005
18.1175  9.09859
18.1365  10.2131
18.1556  11.4464
18.1746  12.7855
18.1936  14.4179
18.2126  15.9327
18.2316  17.7646
18.2506  19.7897
18.2696  22.1029
18.2886  24.2045
18.3076  26.5169
18.3266  29.0216
18.3456  31.5653
18.3646  34.3854
18.3836  36.7104
18.4026  39.1779
18.4216  41.3153
18.4406  43.7003
18.4596  45.5719
18.4786  47.2036
18.4976  48.3662
18.5166  49.0623
18.5356  49.0657
18.5546  48.791
18.5736  48.2257
18.5926  47.0184
18.6116  44.9885
18.6306  42.7728
18.6496  39.8855
18.6686  36.4479
18.6876  32.9587
18.7066  29.4662
18.7256  25.9032
18.7447  22.2871
18.7637  18.8552
18.7827  15.704
18.8017  13.0402
18.8207  11.2206
18.8397  9.41268
18.8587  7.57691
18.8777  6.22786
18.8967  5.42527
18.9157  4.52949
18.9347  4.10511
18.9537  3.74931
18.9727  3.81384
18.9917  3.52623
19.0107  3.29917
19.0297  2.73864
19.0487  2.16668
19.0677  1.37633
19.0867  1.18528
19.1057  0.843927
19.1247  0.666462
19.1437  0.322863
19.1627  0.23912
19.1817  0.042227
19.2007  -0.139921
19.2197  -0.153344
19.2387  0.0127226
19.2577  0.17743
19.2767  0.147521
19.2957  -0.235913
19.3148  -0.267853
19.3338  -0.116207
19.3528  -0.0274726
19.3718  -0.0973237
19.3908  -0.32046
19.4098  -0.148436
19.4288  0.0773545
19.4478  0.285681
19.4668  0.312951
19.4858  0.110546
19.5048  0.117646
19.5238  0.264767
19.5428  0.491355
19.5618  0.460805
19.5808  0.557883
19.5998  0.836991
19.6188  1.02071
19.6378  0.938705
19.6568  0.776965
19.6758  0.920079
19.6948  1.13585
19.7138  1.25716
19.7328  1.05429
19.7518  1.062
19.7708  0.910765
19.7898  0.869593
19.8088  0.926915
19.8278  0.748292
19.8468  0.557948
19.8658  0.529084
19.8848  0.43813
19.9039  0.272747
19.9229  0.163526
19.9419  0.0956986
19.9609  0.0432852
19.9799  -0.100215
19.9989  -0.191393
20.0179  -0.199616
20.0369  -0.139866
20.0559  -0.159759
20.0749  -0.0793654
20.0939  -0.0202234
20.1129  0.0624558
20.1319  0.0818894
20.1509  0.206547
20.1699  -0.00440737
20.1889  -0.0497293
20.2079  0.0233877
20.2269  0.316297
20.2459  0.467372
20.2649  0.553728
20.2839  0.675982
20.3029  0.812115
20.3219  0.758573
20.3409  0.892677
20.3599  0.829403
20.3789  0.701277
20.3979  0.708357
20.4169  0.566722
20.4359  0.49957
20.4549  0.509746
20.4739  0.640452
20.493  0.701127
20.512  0.751842
20.531  0.641343
20.55  0.889139
20.569  1.16384
20.588  1.39605
20.607  1.5008
20.626  1.76153
20.645  1.85372
20.664  1.77666
20.683  1.68675
20.702  1.64242
20.721  1.60246
20.74  1.62059
20.759  1.67821
20.778  1.67116
20.797  1.50009
20.816  1.43772
20.835  1.52453
20.854  1.46266
20.873  1.3073
20.892  1.15787
20.911  1.24411
20.93  1.48949
20.949  1.51695
20.968  1.31448
20.987  0.970794
21.006  0.791344
21.025  0.673825
21.044  0.675071
21.0631  0.400765
21.0821  0.204986
21.1011  0.246462
21.1201  0.304264
21.1391  0.194557
21.1581  0.0674856
21.1771  0.046318
21.1961  -0.101971
21.2151  0.164927
21.2341  0.446408
21.2531  0.576058
21.2721  0.493682
21.2911  0.509042
21.3101  0.305746
21.3291  0.139461
21.3481  0.235547
21.3671  0.287829
21.3861  0.271186
21.4051  0.0992143
21.4241  0.036194
21.4431  0.257587
21.4621  0.248368
21.4811  0.162032
21.5001  -0.0907711
21.5191  -0.189551
21.5381  -0.20102
21.5571  -0.267776
21.5761  -0.19005
21.5951  -0.0816167
21.6141  0.0921126
21.6331  0.061706
21.6522  0.202415
21.6712  0.334677
21.6902  0.615985
21.7092  0.64192
21.7282  0.490246
21.7472  0.115985
21.7662  -0.0570252
21.7852  0.0752456
21.8042  0.124247
21.8232  0.0250127
21.8422  -0.0806391
21.8612  -0.184563
21.8802  -0.254165
21.8992  -0.217102
21.9182  0.0997023
21.9372  0.432925
21.9562  0.280097
21.9752  0.0714612
21.9942  -0.268901
22.0132  -0.31411
22.0322  0.219189