File: data/processed/Run2_XRD/18_ReMoB2_755psi_noRuby_S_P1_C1_D1w_115.dat
2.93393  0.375831
2.95294  0.274409
2.97194  0.309748
2.99094  0.895718
3.00995  1.22769
3.02895  0.938811
3.04795  0.977225
3.06696  1.10691
3.08596  1.53108
3.10496  1.46131
3.12397  1.02809
3.14297  1.02872
3.16197  0.821392
3.18098  0.759392
3.19998  0.284802
3.21898  0.415846
3.23799  0.854423
3.25699  1.49116
3.27599  1.2514
3.295  1.38879
3.314  1.30305
3.333  1.02945
3.35201  0.986397
3.37101  1.09556
3.39001  1.07593
3.40902  1.07735
3.42802  1.02778
3.44702  0.72131
3.46603  1.01231
3.48503  1.60236
3.50403  2.52747
3.52304  4.00405
3.54204  6.06371
3.56104  8.75678
3.58005  11.1423
3.59905  12.5658
3.61805  11.6203
3.63706  9.35568
3.65606  6.77535
3.67506  4.6008
3.69407  3.53222
3.71307  2.93642
3.73207  2.64487
3.75108  1.95081
3.77008  1.60227
3.78908  1.20651
3.80808  0.606446
3.82709  0.592861
3.84609  0.525368
3.86509  0.0891319
3.8841  0.193926
3.9031  0.441772
3.9221  0.770027
3.94111  0.579827
3.96011  0.726772
3.97911  0.510461
3.99812  0.538585
4.01712  0.765333
4.03612  1.02442
4.05513  0.704313
4.07413  0.0224288
4.09313  -0.0845106
4.11214  0.457944
4.13114  0.590455
4.15014  0.63759
4.16915  0.280216
4.18815  0.214092
4.20715  0.0688036
4.22616  0.533754
4.24516  0.599397
4.26416  0.678683
4.28317  0.297959
4.30217  0.00457048
4.32117  -0.0454765
4.34018  0.124049
4.35918  0.153548
4.37818  0.347546
4.39719  0.474246
4.41619  0.322663
4.43519  0.115218
4.4542  -0.0359234
4.4732  0.298606
4.4922  0.373584
4.51121  0.497805
4.53021  0.792408
4.54921  0.564699
4.56822  0.470672
4.58722  0.313494
4.60622  0.0574485
4.62523  0.0384964
4.64423  0.108524
4.66323  0.57346
4.68224  0.284945
4.70124  0.18534
4.72024  0.352239
4.73924  0.640868
4.75825  0.242718
4.77725  -0.0801193
4.79625  0.0356522
4.81526  0.00937472
4.83426  0.490194
4.85326  0.211193
4.87227  0.874726
4.89127  0.529777
4.91027  0.195244
4.92928  0.0721007
4.94828  0.296491
4.96728  0.379418
4.98629  0.0620108
5.00529  -0.221741
5.02429  0.181942
5.0433  0.13973
5.0623  0.267377
5.0813  0.235693
5.10031  0.0691904
5.11931  0.626755
5.13831  0.644646
5.15732  0.638986
5.17632  0.879899
5.19532  0.904993
5.21433  0.811813
5.23333  0.651326
5.25233  0.734006
5.27134  0.832672
5.29034  1.02956
5.30934  0.461993
5.32835  0.117767
5.34735  0.153057
5.36635  0.638607
5.38536  1.03911
5.40436  0.836559
5.42336  0.811419
5.44237  0.154249
5.46137  0.24375
5.48037  0.0490091
5.49938  0.217368
5.51838  0.00351704
5.53738  -0.143796
5.55639  -0.251167
5.57539  0.268871
5.59439  0.519156
5.6134  0.479812
5.6324  -0.126931
5.6514  0.334657
5.67041  0.517537
5.68941  0.599076
5.70841  0.20796
5.72741  -0.0642188
5.74642  0.0787523
5.76542  -0.0544977
5.78442  0.155032
5.80343  0.131875
5.82243  0.753708
5.84143  0.912602
5.86044  0.67148
5.87944  0.0838376
5.89844  0.115358
5.91745  0.757728
5.93645  1.4408
5.95545  1.92559
5.97446  2.00619
5.99346  1.82332
6.01246  1.74821
6.03147  1.38194
6.05047  0.955499
6.06947  0.621483
6.08848  0.271326
6.10748  0.559052
6.12648  0.336178
6.14549  0.638903
6.16449  0.650028
6.18349  0.567665
6.2025  0.311697
6.2215  0.217658
6.2405  0.211994
6.25951  0.357525
6.27851  0.38924
6.29751  0.321327
6.31652  0.0920957
6.33552  0.1164
6.35452  0.095843
6.37353  -0.289891
6.39253  -0.283353
6.41153  -0.0522403
6.43054  0.0817757
6.44954  0.42534
6.46854  0.814075
6.48755  0.948473
6.50655  1.32033
6.52555  2.11524
6.54456  3.40142
6.56356  4.13663
6.58256  5.02741
6.60157  5.32969
6.62057  5.32686
6.63957  4.30143
6.65857  2.91922
6.67758  1.97782
6.69658  1.79512
6.71558  1.8377
6.73459  1.52918
6.75359  0.49138
6.77259  0.321043
6.7916  0.332957
6.8106  0.282858
6.8296  0.255355
6.84861  0.463648
6.86761  1.42245
6.88661  2.20148
6.90562  2.81183
6.92462  3.83119
6.94362  5.1558
6.96263  6.84705
6.98163  8.55462
7.00063  9.6713
7.01964  10.3951
7.03864  10.7836
7.05764  11.7761
7.07665  13.3086
7.09565  16.072
7.11465  19.9173
7.13366  27.1665
7.15266  34.8347
7.17166  46.5954
7.19067  54.5911
7.20967  60.7319
7.22867  61.2642
7.24768  58.0425
7.26668  49.2922
7.28568  41.7267
7.30469  34.0272
7.32369  27.5627
7.34269  22.5076
7.3617  17.8801
7.3807  14.4362
7.3997  11.5066
7.41871  9.58207
7.43771  8.1075
7.45671  6.59021
7.47572  5.74152
7.49472  5.14173
7.51372  4.91893
7.53273  3.92004
7.55173  3.36386
7.57073  3.24945
7.58973  2.90723
7.60874  2.33949
7.62774  1.80628
7.64674  1.54765
7.66575  1.80546
7.68475  2.04325
7.70375  1.80832
7.72276  1.288
7.74176  0.894518
7.76076  0.948274
7.77977  1.09451
7.79877  0.827975
7.81777  0.483382
7.83678  0.238869
7.85578  0.533247
7.87478  0.590889
7.89379  0.479133
7.91279  0.425007
7.93179  0.782305
7.9508  1.24302
7.9698  1.10549
7.9888  0.439329
8.00781  0.182129
8.02681  0.34643
8.04581  0.105622
8.06482  -0.216885
8.08382  -0.224183
8.10282  0.170638
8.12183  0.569956
8.14083  0.498773
8.15983  0.155807
8.17884  0.210358
8.19784  0.255232
8.21684  0.782786
8.23585  1.05225
8.25485  1.12255
8.27385  1.12836
8.29286  1.01017
8.31186  0.825143
8.33086  0.471544
8.34987  0.248538
8.36887  0.104704
8.38787  0.444499
8.40688  0.727769
8.42588  0.883463
8.44488  0.35007
8.46389  0.210371
8.48289  -0.0946811
8.50189  0.279362
8.52089  0.862086
8.5399  1.09643
8.5589  0.884641
8.5779  0.511829
8.59691  0.541967
8.61591  0.228413
8.63491  0.0329418
8.65392  -0.534346
8.67292  -0.251086
8.69192  -0.066633
8.71093  -0.0496156
8.72993  -0.0864212
8.74893  0.074723
8.76794  0.066993
8.78694  -0.282989
8.80594  -0.426909
8.82495  -0.173433
8.84395  -0.513707
8.86295  -0.679077
8.88196  -0.122216
8.90096  0.556655
8.91996  0.684004
8.93897  0.304275
8.95797  0.0476002
8.97697  0.172857
8.99598  0.196851
9.01498  0.508833
9.03398  0.839189
9.05299  1.29578
9.07199  1.55381
9.09099  1.97901
9.11  2.27797
9.129  2.78531
9.148  3.73858
9.16701  4.71902
9.18601  5.51011
9.20501  6.46735
9.22402  7.87968
9.24302  9.88324
9.26202  12.057
9.28103  14.4653
9.30003  17.4193
9.31903  21.7235
9.33804  27.2486
9.35704  34.4742
9.37604  43.8706
9.39505  55.9453
9.41405  72.5045
9.43305  93.485
9.45206  121.625
9.47106  154.366
9.49006  190.575
9.50906  226.036
9.52807  256.092
9.54707  277.791
9.56607  289.195
9.58508  288.321
9.60408  277.016
9.62308  259.467
9.64209  238.805
9.66109  218.041
9.68009  198.308
9.6991  181.245
9.7181  165.857
9.7371  151.685
9.75611  139.709
9.77511  129.475
9.79411  120.491
9.81312  112.467
9.83212  106.433
9.85112  101.088
9.87013  97.7134
9.88913  95.6456
9.90813  93.5741
9.92714  91.4994
9.94614  88.8952
9.96514  85.8221
9.98415  82.2371
10.0031  77.6709
10.0222  72.4272
10.0412  66.9769
10.0602  61.6322
10.0792  56.1795
10.0982  50.384
10.1172  44.882
10.1362  39.5594
10.1552  34.7134
10.1742  29.9596
10.1932  25.6662
10.2122  21.5591
10.2312  17.7763
10.2502  14.6562
10.2692  11.9529
10.2882  9.59939
10.3072  7.66713
10.3262  5.94139
10.3452  4.58293
10.3642  3.43841
10.3832  2.47902
10.4022  2.12449
10.4212  1.3218
10.4402  0.731391
10.4592  -0.1842
10.4782  -0.661737
10.4972  -0.988954
10.5162  -0.990574
10.5352  -1.08075
10.5542  -1.21503
10.5732  -0.913413
10.5923  -0.555383
10.6113  -0.00936353
10.6303  0.618799
10.6493  1.32215
10.6683  1.96054
10.6873  2.62478
10.7063  2.82309
10.7253  3.34256
10.7443  3.58143
10.7633  4.14587
10.7823  4.05918
10.8013  4.07514
10.8203  3.98253
10.8393  3.84859
10.8583  3.53739
10.8773  3.07405
10.8963  3.05468
10.9153  2.87137
10.9343  2.27841
10.9533  1.76039
10.9723  1.45272
10.9913  1.4641
11.0103  1.5243
11.0293  1.65558
11.0483  1.84601
11.0673  1.90727
11.0863  2.03916
11.1053  2.26881
11.1243  2.63469
11.1433  3.087
11.1623  3.18484
11.1814  3.0355
11.2004  2.86891
11.2194  3.28911
11.2384  3.48552
11.2574  3.43595
11.2764  3.40437
11.2954  3.69037
11.3144  4.14656
11.3334  4.34183
11.3524  4.5636
11.3714  4.79496
11.3904  5.1981
11.4094  5.69795
11.4284  5.86271
11.4474  5.46144
11.4664  5.2825
11.4854  5.24594
11.5044  5.23282
11.5234  5.00973
11.5424  4.28736
11.5614  3.50654
11.5804  3.11493
11.5994  2.99767
11.6184  2.54092
11.6374  1.62108
11.6564  1.10634
11.6754  0.446913
11.6944  0.285988
11.7134  -0.153428
11.7324  -0.204114
11.7515  -0.429059
11.7705  -0.483122
11.7895  -0.648798
11.8085  -0.847308
11.8275  -0.616079
11.8465  -0.503377
11.8655  -0.518186
11.8845  -0.589345
11.9035  -0.340539
11.9225  -0.0335237
11.9415  0.183915
11.9605  0.732033
11.9795  1.20683
11.9985  1.76645
12.0175  2.0665
12.0365  2.73435
12.0555  3.5988
12.0745  4.63064
12.0935  6.26859
12.1125  7.96974
12.1315  9.93872
12.1505  11.6611
12.1695  13.9828
12.1885  16.4765
12.2075  20.6202
12.2265  25.2507
12.2455  31.1948
12.2645  38.3607
12.2835  47.3887
12.3025  59.6399
12.3215  75.2461
12.3406  94.2399
12.3596  118.785
12.3786  148.575
12.3976  183.972
12.4166  227.39
12.4356  273.938
12.4546  327.182
12.4736  378.211
12.4926  424.683
12.5116  456.149
12.5306  473.486
12.5496  472.325
12.5686  453.139
12.5876  422.458
12.6066  382.079
12.6256  337.146
12.6446  290.166
12.6636  246.668
12.6826  205.286
12.7016  168.486
12.7206  136.437
12.7396  109.4
12.7586  87.4879
12.7776  70.9525
12.7966  58.5232
12.8156  49.4265
12.8346  42.7708
12.8536  37.3865
12.8726  33.2507
12.8916  30.0899
12.9106  27.5292
12.9297  25.5575
12.9487  23.6806
12.9677  21.917
12.9867  20.5072
13.0057  19.0923
13.0247  17.7257
13.0437  16.5014
13.0627  15.2922
13.0817  14.3443
13.1007  13.6125
13.1197  12.5654
13.1387  11.7919
13.1577  10.8798
13.1767  10.185
13.1957  9.58213
13.2147  8.50333
13.2337  7.47928
13.2527  6.20112
13.2717  5.63053
13.2907  5.3248
13.3097  5.56029
13.3287  5.98255
13.3477  5.80257
13.3667  4.92237
13.3857  4.30945
13.4047  4.31544
13.4237  4.64003
13.4427  4.93406
13.4617  5.4374
13.4807  5.7366
13.4998  5.93575
13.5188  5.95104
13.5378  6.12887
13.5568  6.38851
13.5758  6.5615
13.5948  6.34228
13.6138  6.10714
13.6328  6.17624
13.6518  6.23962
13.6708  6.11328
13.6898  5.51039
13.7088  4.87751
13.7278  4.71627
13.7468  4.171
13.7658  4.0369
13.7848  3.66512
13.8038  3.59209
13.8228  3.01814
13.8418  2.58991
13.8608  1.93529
13.8798  1.69278
13.8988  1.25484
13.9178  0.72366
13.9368  0.328362
13.9558  0.129182
13.9748  0.371227
13.9938  -0.0229689
14.0128  0.0947458
14.0318  -0.103427
14.0508  -0.268815
14.0698  -0.705538
14.0889  -1.01746
14.1079  -0.637151
14.1269  -0.236777
14.1459  0.211813
14.1649  0.559882
14.1839  0.857788
14.2029  1.18663
14.2219  1.1063
14.2409  1.17905
14.2599  1.68862
14.2789  2.56028
14.2979  3.10024
14.3169  3.47471
14.3359  4.1926
14.3549  4.65457
14.3739  5.40013
14.3929  5.96211
14.4119  6.24791
14.4309  6.13875
14.4499  6.33737
14.4689  6.46111
14.4879  6.71546
14.5069  6.60295
14.5259  6.46192
14.5449  6.09126
14.5639  5.61822
14.5829  5.21133
14.6019  5.13327
14.6209  4.867
14.6399  4.48518
14.6589  3.96132
14.678  3.58857
14.697  2.91598
14.716  2.11505
14.735  1.57489
14.754  1.26325
14.773  0.906652
14.792  0.296431
14.811  -0.217342
14.83  0.0684111
14.849  0.000235701
14.868  0.240891
14.887  0.0122993
14.906  0.160854
14.925  0.254269
14.944  0.130131
14.963  -0.231404
14.982  -0.395699
15.001  -0.370752
15.02  -0.430555
15.039  -0.164499
15.058  0.140654
15.077  0.500299
15.096  0.4557
15.115  0.478519
15.134  0.216805
15.153  0.184847
15.172  0.311988
15.191  0.449754
15.21  0.653154
15.229  0.759357
15.2481  0.689676
15.2671  0.326287
15.2861  -0.210797
15.3051  -0.0307618
15.3241  0.588633
15.3431  0.938602
15.3621  0.841619
15.3811  0.865652
15.4001  1.0262
15.4191  1.09703
15.4381  1.3207
15.4571  1.32152
15.4761  1.31265
15.4951  0.983666
15.5141  0.79143
15.5331  0.587008
15.5521  0.662196
15.5711  0.820839
15.5901  0.855818
15.6091  1.06909
15.6281  1.16036
15.6471  1.16882
15.6661  0.836133
15.6851  0.743414
15.7041  0.582007
15.7231  0.803362
15.7421  0.922292
15.7611  0.918576
15.7801  0.923792
15.7991  0.606805
15.8181  0.5925
15.8372  0.531117
15.8562  0.550744
15.8752  0.339532
15.8942  0.192217
15.9132  -0.217242
15.9322  -0.170528
15.9512  0.126598
15.9702  0.308718
15.9892  0.479615
16.0082  0.362997
16.0272  0.385204
16.0462  0.451691
16.0652  0.470302
16.0842  0.584863
16.1032  0.601579
16.1222  1.03554
16.1412  1.63292
16.1602  2.21204
16.1792  2.54721
16.1982  2.75997
16.2172  3.37837
16.2362  3.9561
16.2552  4.86905
16.2742  5.94076
16.2932  6.82464
16.3122  7.67059
16.3312  8.7467
16.3502  9.88915
16.3692  11.7118
16.3882  13.5561
16.4073  15.6831
16.4263  18.1457
16.4453  20.5991
16.4643  23.2593
16.4833  26.1029
16.5023  28.3567
16.5213  30.6532
16.5403  33.344
16.5593  35.2635
16.5783  37.0663
16.5973  37.8676
16.6163  38.1919
16.6353  37.8086
16.6543  37.4321
16.6733  37.1872
16.6923  36.4405
16.7113  35.7605
16.7303  35.0321
16.7493  33.5154
16.7683  32.2486
16.7873  30.7955
16.8063  29.2948
16.8253  27.9759
16.8443  26.6019
16.8633  25.7645
16.8823  24.7807
16.9013  23.9932
16.9203  23.2491
16.9393  22.5533
16.9583  21.4108
16.9773  20.1655
16.9964  18.7338
17.0154  17.5852
17.0344  17.0067
17.0534  16.7413
17.0724  15.8949
17.0914  14.8827
17.1104  13.8819
17.1294  13.2887
17.1484  12.9191
17.1674  12.5828
17.1864  11.9635
17.2054  10.8307
17.2244  9.90615
17.2434  9.00527
17.2624  8.47297
17.2814  8.01107
17.3004  7.1328
17.3194  5.81056
17.3384  4.61878
17.3574  4.0252
17.3764  3.79793
17.3954  3.56124
17.4144  2.9076
17.4334  2.21814
17.4524  2.12693
17.4714  2.14218
17.4904  1.9657
17.5094  1.46594
17.5284  1.52147
17.5474  1.81038
17.5664  2.19613
17.5855  2.20793
17.6045  2.14943
17.6235  1.94602
17.6425  1.7277
17.6615  1.77167
17.6805  1.89252
17.6995  2.07343
17.7185  2.09406
17.7375  2.3214
17.7565  2.08742
17.7755  2.225
17.7945  2.00224
17.8135  2.17951
17.8325  2.26188
17.8515  2.25279
17.8705  2.41759
17.8895  2.48211
17.9085  2.63829
17.9275  2.91905
17.9465  3.09262
17.9655  3.21098
17.9845  3.466
18.0035  3.72045
18.0225  4.19099
18.0415  4.44544
18.0605  4.8935
18.0795  5.29746
18.0985  5.91265
18.1175  6.91299
18.1365  7.55197
18.1556  8.40372
18.1746  9.40238
18.1936  10.5812
18.2126  11.5346
18.2316  12.8845
18.2506  14.4413
18.2696  16.2851
18.2886  18.2737
18.3076  20.2594
18.3266  22.2341
18.3456  24.707
18.3646  27.6812
18.3836  30.5155
18.4026  33.3429
18.4216  36.1427
18.4406  38.8679
18.4596  41.1293
18.4786  43.3124
18.4976  45.3667
18.5166  47.1765
18.5356  48.2069
18.5546  48.5409
18.5736  48.5022
18.5926  48.1954
18.6116  47.4901
18.6306  46.0099
18.6496  43.9667
18.6686  41.2198
18.6876  38.3394
18.7066  35.4266
18.7256  32.1651
18.7447  28.7451
18.7637  25.3655
18.7827  22.1559
18.8017  18.5411
18.8207  15.3319
18.8397  12.6625
18.8587  10.2032
18.8777  8.18065
18.8967  6.36665
18.9157  5.08173
18.9347  4.31137
18.9537  3.78935
18.9727  3.39904
18.9917  3.11074
19.0107  2.90857
19.0297  2.74598
19.0487  2.549
19.0677  2.31808
19.0867  1.95012
19.1057  1.32741
19.1247  1.02023
19.1437  0.567277
19.1627  0.178299
19.1817  -0.21922
19.2007  -0.0799063
19.2197  0.143419
19.2387  0.127415
19.2577  0.128597
19.2767  0.154712
19.2957  -0.0331894
19.3148  -0.130243
19.3338  0.0100135
19.3528  0.151631
19.3718  0.0414626
19.3908  -0.0578864
19.4098  -0.0621645
19.4288  0.104657
19.4478  0.209353
19.4668  0.334277
19.4858  0.246209
19.5048  0.0912875
19.5238  -0.136152
19.5428  0.0387443
19.5618  0.199936
19.5808  0.467969
19.5998  0.502047
19.6188  0.623773
19.6378  0.641142
19.6568  0.400822
19.6758  0.224543
19.6948  0.166809
19.7138  0.138561
19.7328  0.162545
19.7518  0.377911
19.7708  0.707774
19.7898  0.788346
19.8088  0.557119
19.8278  0.614353
19.8468  0.479214
19.8658  0.443211
19.8848  0.440516
19.9039  0.291558
19.9229  -0.0469147
19.9419  -0.293343
19.9609  -0.174596
19.9799  -0.0754275
19.9989  0.0507414
20.0179  0.0815043
20.0369  0.093842
20.0559  0.0570515
20.0749  0.0204724
20.0939  -0.00236036
20.1129  -0.0704084
20.1319  -0.0813924
20.1509  -0.173806
20.1699  0.0218946
20.1889  0.127005
20.2079  0.349026
20.2269  0.448497
20.2459  0.481583
20.2649  0.499701
20.2839  0.357242
20.3029  0.21654
20.3219  0.092677
20.3409  0.213296
20.3599  0.260208
20.3789  0.300591
20.3979  0.138927
20.4169  -0.0229379
20.4359  0.106874
20.4549  0.324826
20.4739  0.360001
20.493  0.255876
20.512  0.264448
20.531  0.137837
20.55  0.312076
20.569  0.335274
20.588  0.617479
20.607  0.812177
20.626  1.03005
20.645  1.20081
20.664  1.28622
20.683  1.31921
20.702  1.39314
20.721  1.4194
20.74  1.64375
20.759  1.70522
20.778  1.72252
20.797  1.59942
20.816  1.60337
20.835  1.72562
20.854  1.69574
20.873  1.71757
20.892  1.66819
20.911  1.48441
20.93  1.39582
20.949  1.28994
20.968  1.02753
20.987  0.879589
21.006  0.872298
21.025  0.765497
21.044  0.725829
21.0631  0.624569
21.0821  0.517649
21.1011  0.645751
21.1201  0.532361
21.1391  0.445794
21.1581  0.297552
21.1771  0.166297
21.1961  0.111165
21.2151  -0.0577321
21.2341  0.0726751
21.2531  0.411421
21.2721  0.738361
21.2911  0.583653
21.3101  0.579033
21.3291  0.460367
21.3481  0.370138
21.3671  0.193632
21.3861  0.284456
21.4051  0.383441
21.4241  0.36661
21.4431  0.115823
21.4621  -0.0235269
21.4811  -0.24534
21.5001  -0.259517
21.5191  -0.112481
21.5381  0.233314
21.5571  0.193534
21.5761  0.136619
21.5951  0.133972
21.6141  0.12294
21.6331  0.117017
21.6522  0.0240439
21.6712  0.156785
21.6902  0.225101
21.7092  0.189853
21.7282  0.0841343
21.7472  0.179172
21.7662  0.185623
21.7852  0.108167
21.8042  0.094305
21.8232  0.00459225
21.8422  -0.130103
21.8612  -0.179649
21.8802  -0.227809
21.8992  -0.0690299
21.9182  0.0283549
21.9372  0.270198
21.9562  0.291793
21.9752  0.161981
21.9942  -0.217913
22.0132  -0.393646
22.0322  0.238929