File: data/processed/Run2_XRD/19_ReMoB2_785psi_noRuby_S_P1_C1_D1w_121.dat
2.93393  0.464643
2.95294  0.732043
2.97194  0.488033
2.99094  0.464817
3.00995  0.462643
3.02895  0.609723
3.04795  0.566555
3.06696  0.528111
3.08596  0.753121
3.10496  0.8955
3.12397  1.1633
3.14297  0.993545
3.16197  0.539086
3.18098  0.164855
3.19998  -0.0685702
3.21898  0.0489933
3.23799  0.334279
3.25699  0.809531
3.27599  0.787023
3.295  0.489629
3.314  0.459202
3.333  1.15579
3.35201  1.13404
3.37101  1.33278
3.39001  1.58532
3.40902  1.85359
3.42802  1.33186
3.44702  1.13544
3.46603  1.36561
3.48503  2.23652
3.50403  2.68013
3.52304  3.90759
3.54204  5.87612
3.56104  9.12529
3.58005  12.5567
3.59905  15.4251
3.61805  16.0439
3.63706  14.0282
3.65606  10.1665
3.67506  7.20287
3.69407  4.83661
3.71307  3.45041
3.73207  2.83912
3.75108  2.17145
3.77008  1.81451
3.78908  1.49169
3.80808  1.63867
3.82709  1.16772
3.84609  0.772204
3.86509  0.206295
3.8841  -0.0584403
3.9031  0.108887
3.9221  0.171989
3.94111  0.260525
3.96011  0.52089
3.97911  0.638897
3.99812  0.639727
4.01712  0.586642
4.03612  0.485255
4.05513  0.536212
4.07413  0.581815
4.09313  0.728052
4.11214  0.605954
4.13114  0.81529
4.15014  1.38636
4.16915  1.76272
4.18815  1.63089
4.20715  1.50146
4.22616  1.23702
4.24516  1.01392
4.26416  1.17339
4.28317  0.895715
4.30217  1.12392
4.32117  0.424194
4.34018  0.617612
4.35918  0.263419
4.37818  0.654685
4.39719  0.706359
4.41619  0.978843
4.43519  0.677789
4.4542  0.00715997
4.4732  -0.345974
4.4922  0.0603224
4.51121  0.424483
4.53021  0.622361
4.54921  0.597818
4.56822  0.463841
4.58722  0.493509
4.60622  0.599995
4.62523  0.614094
4.64423  0.578641
4.66323  0.363188
4.68224  0.738866
4.70124  0.566526
4.72024  0.072186
4.73924  0.115683
4.75825  0.282074
4.77725  0.395938
4.79625  0.674778
4.81526  0.135864
4.83426  0.442248
4.85326  0.378307
4.87227  0.761688
4.89127  0.8266
4.91027  0.817999
4.92928  0.277282
4.94828  0.502129
4.96728  0.413874
4.98629  0.510364
5.00529  0.447204
5.02429  0.351179
5.0433  0.286179
5.0623  0.0420135
5.0813  0.151942
5.10031  0.668762
5.11931  1.3484
5.13831  1.27405
5.15732  0.957842
5.17632  0.455603
5.19532  -0.00626048
5.21433  0.430893
5.23333  0.994382
5.25233  1.04178
5.27134  1.08864
5.29034  0.658944
5.30934  0.275882
5.32835  0.184747
5.34735  0.240271
5.36635  0.760578
5.38536  0.711671
5.40436  0.357085
5.42336  -0.0289405
5.44237  -0.117955
5.46137  0.306529
5.48037  0.683249
5.49938  1.01008
5.51838  0.904236
5.53738  1.36224
5.55639  1.26521
5.57539  1.47573
5.59439  1.08893
5.6134  0.621943
5.6324  0.414304
5.6514  0.407063
5.67041  0.234273
5.68941  -0.0765557
5.70841  0.295542
5.72741  0.821465
5.74642  1.05892
5.76542  0.915661
5.78442  0.548584
5.80343  -0.0901526
5.82243  -0.253203
5.84143  -0.0351176
5.86044  0.628677
5.87944  0.831831
5.89844  1.05326
5.91745  0.690598
5.93645  1.25124
5.95545  1.79989
5.97446  2.03824
5.99346  1.77061
6.01246  1.77305
6.03147  1.7323
6.05047  1.47312
6.06947  0.896498
6.08848  0.454854
6.10748  0.407776
6.12648  0.407593
6.14549  0.585125
6.16449  0.503494
6.18349  0.58875
6.2025  0.646667
6.2215  0.611212
6.2405  0.382917
6.25951  0.285994
6.27851  0.0570419
6.29751  -0.0389888
6.31652  -0.101464
6.33552  -0.125836
6.35452  0.289915
6.37353  0.162907
6.39253  0.238656
6.41153  0.379143
6.43054  0.926225
6.44954  1.51515
6.46854  1.19048
6.48755  0.804199
6.50655  0.921944
6.52555  1.17023
6.54456  2.12396
6.56356  3.32781
6.58256  4.5289
6.60157  5.07943
6.62057  5.16109
6.63957  4.86418
6.65857  4.2224
6.67758  2.94288
6.69658  1.85493
6.71558  1.47949
6.73459  1.20148
6.75359  0.972752
6.77259  0.741186
6.7916  0.0919391
6.8106  -0.0774159
6.8296  0.0192049
6.84861  0.304935
6.86761  1.24369
6.88661  1.74987
6.90562  2.19641
6.92462  2.91504
6.94362  3.99536
6.96263  5.20226
6.98163  6.35751
7.00063  7.96318
7.01964  9.49668
7.03864  10.6063
7.05764  11.1379
7.07665  11.9645
7.09565  13.8855
7.11465  17.0907
7.13366  22.8926
7.15266  29.7251
7.17166  40.295
7.19067  49.1575
7.20967  57.928
7.22867  62.3946
7.24768  62.0992
7.26668  57.0563
7.28568  50.7475
7.30469  43.3593
7.32369  36.0838
7.34269  30.1835
7.3617  23.7812
7.3807  19.4568
7.3997  15.9571
7.41871  13.4773
7.43771  11.9726
7.45671  10.1935
7.47572  8.89991
7.49472  7.43783
7.51372  7.02958
7.53273  6.59097
7.55173  6.2223
7.57073  5.45352
7.58973  4.26856
7.60874  3.35067
7.62774  2.46871
7.64674  2.45752
7.66575  2.6679
7.68475  3.05547
7.70375  2.63112
7.72276  2.14235
7.74176  1.7896
7.76076  1.53552
7.77977  1.08897
7.79877  0.856577
7.81777  0.825325
7.83678  0.988458
7.85578  0.941678
7.87478  0.745952
7.89379  0.246257
7.91279  0.210619
7.93179  0.331028
7.9508  0.312584
7.9698  0.12295
7.9888  0.0932893
8.00781  0.0189927
8.02681  0.326672
8.04581  0.166629
8.06482  0.192906
8.08382  0.139622
8.10282  0.735073
8.12183  0.561213
8.14083  1.08674
8.15983  0.853068
8.17884  1.02832
8.19784  0.778035
8.21684  0.811081
8.23585  0.451009
8.25485  0.49779
8.27385  0.528798
8.29286  0.660638
8.31186  0.378887
8.33086  0.262997
8.34987  0.0992341
8.36887  -0.251854
8.38787  -0.3266
8.40688  -0.279808
8.42588  0.299423
8.44488  0.506348
8.46389  0.469821
8.48289  0.36003
8.50189  -0.0574424
8.52089  0.216458
8.5399  0.37692
8.5589  0.63301
8.5779  0.103584
8.59691  -0.0671327
8.61591  0.0226787
8.63491  0.0513069
8.65392  0.335631
8.67292  0.210044
8.69192  0.537618
8.71093  0.207945
8.72993  0.170807
8.74893  0.172248
8.76794  0.224503
8.78694  -0.264584
8.80594  -0.353306
8.82495  -0.264659
8.84395  0.185757
8.86295  -0.210948
8.88196  -0.185588
8.90096  -0.124791
8.91996  -0.00451849
8.93897  -0.292621
8.95797  -0.320663
8.97697  -0.129271
8.99598  0.318727
9.01498  0.219623
9.03398  0.793113
9.05299  1.10206
9.07199  1.42959
9.09099  1.46955
9.11  1.74155
9.129  2.22638
9.148  2.61657
9.16701  3.38545
9.18601  4.32833
9.20501  5.06196
9.22402  6.10725
9.24302  7.38437
9.26202  9.036
9.28103  10.7322
9.30003  13.2596
9.31903  16.7401
9.33804  20.9524
9.35704  25.8196
9.37604  32.1153
9.39505  40.2218
9.41405  52.2263
9.43305  67.0527
9.45206  87.6947
9.47106  113.674
9.49006  144.894
9.50906  181.854
9.52807  217.422
9.54707  252.763
9.56607  277.181
9.58508  289.671
9.60408  288.501
9.62308  278.467
9.64209  262.01
9.66109  242.478
9.68009  221.015
9.6991  201.91
9.7181  183.679
9.7371  167.261
9.75611  153.538
9.77511  141.01
9.79411  130.138
9.81312  121.804
9.83212  115.551
9.85112  110.81
9.87013  107.839
9.88913  106.553
9.90813  105.668
9.92714  104.93
9.94614  104.118
9.96514  102.102
9.98415  99.0839
10.0031  94.2068
10.0222  88.5805
10.0412  82.1217
10.0602  75.9963
10.0792  69.7399
10.0982  62.9365
10.1172  56.1993
10.1362  49.4285
10.1552  43.1995
10.1742  37.7137
10.1932  32.829
10.2122  28.275
10.2312  23.5696
10.2502  19.4294
10.2692  15.704
10.2882  12.96
10.3072  10.9167
10.3262  8.47119
10.3452  6.45425
10.3642  5.05807
10.3832  4.05998
10.4022  3.1558
10.4212  1.93858
10.4402  0.973754
10.4592  0.291331
10.4782  -0.00505908
10.4972  -0.341301
10.5162  -0.794064
10.5352  -1.20089
10.5542  -1.09804
10.5732  -0.901168
10.5923  -0.897174
10.6113  -1.07961
10.6303  -0.606076
10.6493  0.176671
10.6683  1.24773
10.6873  1.84906
10.7063  2.21729
10.7253  2.23683
10.7443  2.70982
10.7633  2.88941
10.7823  3.24577
10.8013  3.06374
10.8203  3.36258
10.8393  3.5306
10.8583  3.74616
10.8773  4.43595
10.8963  4.29438
10.9153  4.10868
10.9343  3.63171
10.9533  3.06846
10.9723  2.27379
10.9913  1.78554
11.0103  1.57
11.0293  1.92844
11.0483  1.62475
11.0673  1.46386
11.0863  1.6983
11.1053  1.68817
11.1243  1.80979
11.1433  1.68649
11.1623  1.68391
11.1814  1.60044
11.2004  2.01963
11.2194  2.7045
11.2384  3.03373
11.2574  3.24146
11.2764  3.36134
11.2954  3.76354
11.3144  4.31485
11.3334  4.69293
11.3524  5.19942
11.3714  5.91847
11.3904  6.20838
11.4094  6.55154
11.4284  6.83939
11.4474  7.14287
11.4664  7.19561
11.4854  7.10735
11.5044  7.04655
11.5234  6.32271
11.5424  5.58102
11.5614  5.1355
11.5804  4.95521
11.5994  4.55293
11.6184  3.62107
11.6374  3.1627
11.6564  2.71764
11.6754  2.37065
11.6944  1.55623
11.7134  0.709653
11.7324  0.147678
11.7515  -0.374586
11.7705  -0.373389
11.7895  -0.0689063
11.8085  -0.00752872
11.8275  -0.0819196
11.8465  -0.492534
11.8655  -0.655865
11.8845  -0.75953
11.9035  -0.618789
11.9225  -0.541751
11.9415  -0.246505
11.9605  0.147212
11.9795  0.462679
11.9985  0.772217
12.0175  1.2596
12.0365  1.59203
12.0555  1.97946
12.0745  2.82641
12.0935  3.96984
12.1125  5.28087
12.1315  6.39955
12.1505  8.08008
12.1695  10.2569
12.1885  12.5073
12.2075  15.519
12.2265  18.7613
12.2455  22.6665
12.2645  28.1136
12.2835  34.7074
12.3025  44.0177
12.3215  55.7049
12.3406  70.5861
12.3596  90.0174
12.3786  113.827
12.3976  142.37
12.4166  180.078
12.4356  221.421
12.4546  271.387
12.4736  323.844
12.4926  375.795
12.5116  422.026
12.5306  457.196
12.5496  476.162
12.5686  475.802
12.5876  461.021
12.6066  431.962
12.6256  394.373
12.6446  350.54
12.6636  306.426
12.6826  262.009
12.7016  220.757
12.7206  182.89
12.7396  148.936
12.7586  120.31
12.7776  97.0757
12.7966  79.1239
12.8156  65.0232
12.8346  53.8317
12.8536  45.421
12.8726  39.0727
12.8916  34.7392
12.9106  30.6776
12.9297  27.3914
12.9487  24.5748
12.9677  22.4966
12.9867  20.9768
13.0057  19.6427
13.0247  18.117
13.0437  17.0737
13.0627  15.9843
13.0817  14.9223
13.1007  14.0178
13.1197  13.3151
13.1387  12.8118
13.1577  12.2337
13.1767  11.4012
13.1957  10.2182
13.2147  9.08007
13.2337  8.43968
13.2527  7.97063
13.2717  7.31685
13.2907  6.96623
13.3097  6.74206
13.3287  6.6437
13.3477  6.74909
13.3667  6.85956
13.3857  6.48591
13.4047  6.06614
13.4237  5.97003
13.4427  6.40221
13.4617  6.92308
13.4807  7.4721
13.4998  7.99546
13.5188  8.13748
13.5378  8.06754
13.5568  8.32451
13.5758  8.65779
13.5948  8.72319
13.6138  8.8543
13.6328  8.98477
13.6518  8.52062
13.6708  8.43888
13.6898  8.17913
13.7088  8.36822
13.7278  7.87532
13.7468  7.18209
13.7658  6.57076
13.7848  6.06962
13.8038  5.55552
13.8228  4.98744
13.8418  4.56932
13.8608  3.84523
13.8798  3.31498
13.8988  2.85365
13.9178  2.34321
13.9368  1.68012
13.9558  0.904638
13.9748  0.448697
13.9938  0.356222
14.0128  0.179944
14.0318  -0.173137
14.0508  -0.457051
14.0698  -0.755276
14.0889  -0.906002
14.1079  -0.735476
14.1269  -0.483106
14.1459  -0.29728
14.1649  -0.354581
14.1839  -0.222013
14.2029  -0.137049
14.2219  -0.100384
14.2409  0.245429
14.2599  0.522495
14.2789  0.768141
14.2979  1.27889
14.3169  2.07338
14.3359  3.03409
14.3549  3.83083
14.3739  4.19461
14.3929  4.49957
14.4119  5.28526
14.4309  5.98205
14.4499  6.85933
14.4689  7.18226
14.4879  7.60741
14.5069  7.81912
14.5259  7.78625
14.5449  7.88957
14.5639  7.94848
14.5829  7.85897
14.6019  7.39929
14.6209  6.67596
14.6399  5.64763
14.6589  4.89981
14.678  3.96085
14.697  2.83785
14.716  2.13261
14.735  1.48397
14.754  1.50615
14.773  1.0486
14.792  1.03511
14.811  0.775161
14.83  0.582398
14.849  0.315994
14.868  0.180245
14.887  -0.00461913
14.906  -0.0783448
14.925  -0.0198857
14.944  0.0805973
14.963  0.145211
14.982  -0.0577895
15.001  -0.336396
15.02  -0.465162
15.039  -0.339912
15.058  -0.0523513
15.077  -0.129219
15.096  -0.0880679
15.115  -0.357413
15.134  -0.28181
15.153  -0.0270036
15.172  0.0282293
15.191  -0.175125
15.21  -0.129471
15.229  -0.0765378
15.2481  0.25758
15.2671  0.34419
15.2861  0.45103
15.3051  0.159638
15.3241  -0.0662703
15.3431  0.124221
15.3621  0.486532
15.3811  0.556307
15.4001  0.343891
15.4191  0.48449
15.4381  0.659683
15.4571  0.78065
15.4761  0.948453
15.4951  1.18728
15.5141  1.21685
15.5331  1.22031
15.5521  1.28306
15.5711  1.68344
15.5901  1.38848
15.6091  1.22607
15.6281  1.05673
15.6471  1.32568
15.6661  1.21002
15.6851  1.07382
15.7041  0.664459
15.7231  0.785384
15.7421  0.96952
15.7611  0.913056
15.7801  0.830095
15.7991  0.259556
15.8181  -0.102583
15.8372  -0.214145
15.8562  0.188125
15.8752  0.464395
15.8942  0.409512
15.9132  0.583186
15.9322  0.544451
15.9512  0.782774
15.9702  0.81961
15.9892  0.757571
16.0082  0.548668
16.0272  0.495353
16.0462  0.439524
16.0652  0.255312
16.0842  0.394274
16.1032  0.726779
16.1222  0.986269
16.1412  1.03078
16.1602  1.04398
16.1792  1.03113
16.1982  1.29872
16.2172  1.71414
16.2362  2.19941
16.2552  3.16791
16.2742  3.74386
16.2932  4.24824
16.3122  4.62365
16.3312  5.25077
16.3502  5.99322
16.3692  7.00144
16.3882  8.29185
16.4073  9.73485
16.4263  10.9701
16.4453  12.3472
16.4643  14.0611
16.4833  16.5109
16.5023  18.5936
16.5213  20.8974
16.5403  22.6773
16.5593  23.9109
16.5783  25.3875
16.5973  26.8632
16.6163  28.1921
16.6353  29.1199
16.6543  29.652
16.6733  30.2415
16.6923  30.4351
16.7113  30.5585
16.7303  30.1547
16.7493  29.8912
16.7683  29.5043
16.7873  29.1715
16.8063  28.3467
16.8253  27.8447
16.8443  27.0612
16.8633  26.6366
16.8823  26.0941
16.9013  25.4011
16.9203  24.4687
16.9393  23.3784
16.9583  22.2853
16.9773  21.2243
16.9964  20.3013
17.0154  19.6078
17.0344  19.4464
17.0534  18.8131
17.0724  18.1433
17.0914  17.0904
17.1104  16.5102
17.1294  16.0845
17.1484  16.0212
17.1674  15.4797
17.1864  14.86
17.2054  14.2725
17.2244  13.8566
17.2434  13.2765
17.2624  12.3934
17.2814  11.1873
17.3004  9.87626
17.3194  8.65712
17.3384  7.7978
17.3574  7.26303
17.3764  6.56525
17.3954  5.51477
17.4144  4.54617
17.4334  3.91844
17.4524  3.58918
17.4714  3.41668
17.4904  3.17401
17.5094  2.81473
17.5284  2.31656
17.5474  1.97174
17.5664  1.90206
17.5855  1.78327
17.6045  1.7791
17.6235  1.56133
17.6425  1.84867
17.6615  2.15928
17.6805  2.22723
17.6995  1.86027
17.7185  1.42114
17.7375  1.4522
17.7565  1.61368
17.7755  1.7993
17.7945  1.80942
17.8135  2.06176
17.8325  2.3527
17.8515  2.09309
17.8705  1.86652
17.8895  1.7922
17.9085  2.07982
17.9275  2.5197
17.9465  2.92069
17.9655  2.91498
17.9845  3.06313
18.0035  3.08441
18.0225  3.61162
18.0415  4.09937
18.0605  4.86392
18.0795  4.7363
18.0985  4.88596
18.1175  5.19139
18.1365  5.99539
18.1556  7.02801
18.1746  7.89404
18.1936  8.80154
18.2126  9.53047
18.2316  10.6382
18.2506  11.6006
18.2696  12.9659
18.2886  14.3831
18.3076  15.8113
18.3266  17.4432
18.3456  19.4162
18.3646  21.7066
18.3836  23.7639
18.4026  26.1825
18.4216  28.8277
18.4406  31.1946
18.4596  33.0808
18.4786  34.972
18.4976  37.0919
18.5166  39.025
18.5356  40.3672
18.5546  41.1923
18.5736  41.9778
18.5926  42.8291
18.6116  43.3799
18.6306  43.2713
18.6496  42.7731
18.6686  41.9136
18.6876  40.9323
18.7066  38.9978
18.7256  36.5516
18.7447  33.7302
18.7637  30.6531
18.7827  27.2948
18.8017  23.9786
18.8207  20.6389
18.8397  17.7248
18.8587  14.7778
18.8777  12.0333
18.8967  9.64481
18.9157  7.56161
18.9347  6.22009
18.9537  5.31582
18.9727  4.84366
18.9917  4.44141
19.0107  4.07653
19.0297  3.79037
19.0487  3.64844
19.0677  3.24669
19.0867  3.29916
19.1057  3.11788
19.1247  2.77029
19.1437  1.94242
19.1627  1.66537
19.1817  1.28699
19.2007  0.810825
19.2197  0.224558
19.2387  0.0971472
19.2577  -0.0364343
19.2767  -0.134759
19.2957  -0.0127438
19.3148  0.087787
19.3338  -0.0395384
19.3528  -0.201482
19.3718  -0.234734
19.3908  -0.172281
19.4098  -0.0180216
19.4288  0.189974
19.4478  0.131825
19.4668  -0.0505833
19.4858  -0.268754
19.5048  0.0288899
19.5238  0.283833
19.5428  0.301837
19.5618  0.230764
19.5808  0.463068
19.5998  0.503682
19.6188  0.449063
19.6378  0.240968
19.6568  0.2599
19.6758  0.237039
19.6948  0.299165
19.7138  0.0937932
19.7328  0.306919
19.7518  0.535208
19.7708  0.542602
19.7898  0.442258
19.8088  0.38611
19.8278  0.668793
19.8468  0.718886
19.8658  0.919402
19.8848  0.753374
19.9039  0.694348
19.9229  0.614987
19.9419  0.604053
19.9609  0.441586
19.9799  0.290727
19.9989  -0.0424471
20.0179  -0.127547
20.0369  -0.12722
20.0559  -0.068306
20.0749  0.0616839
20.0939  0.104364
20.1129  0.102466
20.1319  0.00196666
20.1509  -0.103107
20.1699  -0.00982838
20.1889  0.101626
20.2079  0.0335282
20.2269  -0.0677072
20.2459  0.086286
20.2649  0.168531
20.2839  0.276085
20.3029  0.172948
20.3219  0.120924
20.3409  0.128481
20.3599  0.457011
20.3789  0.745691
20.3979  0.629742
20.4169  0.345067
20.4359  0.236767
20.4549  0.0260843
20.4739  4.42823e-06
20.493  -0.0363518
20.512  -0.0440696
20.531  0.0974624
20.55  0.240928
20.569  0.460421
20.588  0.38601
20.607  0.393868
20.626  0.438223
20.645  0.486316
20.664  0.612553
20.683  0.698608
20.702  0.903004
20.721  0.958649
20.74  1.07244
20.759  1.15119
20.778  1.27328
20.797  1.42327
20.816  1.63084
20.835  1.82677
20.854  1.85503
20.873  1.75343
20.892  1.616
20.911  1.50103
20.93  1.52192
20.949  1.35586
20.968  1.26922
20.987  1.05432
21.006  1.13593
21.025  1.34614
21.044  1.40855
21.0631  1.17437
21.0821  0.928911
21.1011  0.907767
21.1201  0.964079
21.1391  0.950517
21.1581  0.651546
21.1771  0.64532
21.1961  0.713571
21.2151  0.828552
21.2341  0.694259
21.2531  0.869223
21.2721  0.995568
21.2911  0.964392
21.3101  0.557355
21.3291  0.2874
21.3481  0.203114
21.3671  0.209133
21.3861  0.194414
21.4051  0.0912417
21.4241  -0.059726
21.4431  0.0717214
21.4621  -0.0319516
21.4811  -0.126986
21.5001  -0.0913654
21.5191  0.153564
21.5381  0.141923
21.5571  0.0884205
21.5761  0.117271
21.5951  0.17768
21.6141  -0.088653
21.6331  -0.0911769
21.6522  0.1014
21.6712  0.284424
21.6902  0.190332
21.7092  0.140123
21.7282  0.130713
21.7472  0.198723
21.7662  0.146601
21.7852  0.145628
21.8042  0.0261707
21.8232  -0.000728467
21.8422  -0.282478
21.8612  -0.159624
21.8802  -0.0327908
21.8992  0.0488948
21.9182  -0.105835
21.9372  0.0655746
21.9562  0.339751
21.9752  0.240682
21.9942  -0.180067
22.0132  -0.425875
22.0322  0.236366