File: data/processed/Run2_XRD/1_ReMoB2_0bars_0p2GPa_S_P1_C1_D1w_010.dat
2.93393  0.468853
2.95294  0.18594
2.97194  0.0709996
2.99094  0.0213215
3.00995  0.379552
3.02895  0.965538
3.04795  1.32429
3.06696  0.931631
3.08596  1.07829
3.10496  1.23846
3.12397  1.65233
3.14297  1.72177
3.16197  1.48489
3.18098  1.07433
3.19998  0.718328
3.21898  0.842136
3.23799  1.34254
3.25699  2.12578
3.27599  2.7191
3.295  3.0215
3.314  2.50774
3.333  3.20712
3.35201  5.69354
3.37101  10.469
3.39001  14.4607
3.40902  16.0134
3.42802  12.8336
3.44702  9.00976
3.46603  5.22625
3.48503  2.87024
3.50403  1.58572
3.52304  1.29445
3.54204  1.73317
3.56104  1.69704
3.58005  1.27346
3.59905  1.49742
3.61805  1.3334
3.63706  1.15469
3.65606  1.26591
3.67506  1.33168
3.69407  0.936603
3.71307  0.781437
3.73207  0.997085
3.75108  1.16685
3.77008  0.975194
3.78908  0.753089
3.80808  0.474425
3.82709  1.05671
3.84609  0.936867
3.86509  1.35694
3.8841  1.47535
3.9031  1.66127
3.9221  1.44188
3.94111  1.0548
3.96011  1.03103
3.97911  0.906976
3.99812  1.1386
4.01712  0.974478
4.03612  0.678609
4.05513  0.660551
4.07413  0.543142
4.09313  0.100676
4.11214  0.055182
4.13114  0.392954
4.15014  0.790887
4.16915  1.18325
4.18815  1.29405
4.20715  0.752508
4.22616  0.329096
4.24516  -0.115817
4.26416  0.602761
4.28317  1.20308
4.30217  1.23136
4.32117  0.729794
4.34018  0.20085
4.35918  -0.0166164
4.37818  0.687802
4.39719  0.62571
4.41619  1.07298
4.43519  0.849446
4.4542  0.784481
4.4732  0.57141
4.4922  0.533662
4.51121  0.135197
4.53021  0.0208692
4.54921  0.587734
4.56822  0.723915
4.58722  0.984255
4.60622  0.577013
4.62523  0.318679
4.64423  -0.0329407
4.66323  0.138843
4.68224  0.387826
4.70124  0.504886
4.72024  0.468155
4.73924  0.686127
4.75825  0.164182
4.77725  -0.000434603
4.79625  0.0109122
4.81526  0.0117131
4.83426  0.576217
4.85326  0.572647
4.87227  0.808895
4.89127  0.836638
4.91027  0.929034
4.92928  1.06181
4.94828  0.591564
4.96728  0.294121
4.98629  0.0629536
5.00529  -0.0948342
5.02429  -0.172373
5.0433  0.131873
5.0623  0.141721
5.0813  0.00846867
5.10031  0.337193
5.11931  0.634756
5.13831  0.95852
5.15732  0.924628
5.17632  0.775399
5.19532  0.33508
5.21433  1.13574
5.23333  1.75979
5.25233  2.05258
5.27134  1.6352
5.29034  1.09269
5.30934  0.614739
5.32835  0.340304
5.34735  0.537561
5.36635  1.00437
5.38536  0.811974
5.40436  0.14241
5.42336  -0.0508368
5.44237  -0.14723
5.46137  0.300917
5.48037  -0.0441254
5.49938  0.550917
5.51838  0.638917
5.53738  0.63367
5.55639  0.733995
5.57539  0.881946
5.59439  0.852115
5.6134  1.03021
5.6324  1.21576
5.6514  1.56001
5.67041  1.83973
5.68941  1.35416
5.70841  0.860159
5.72741  0.299664
5.74642  0.396654
5.76542  0.594961
5.78442  0.562011
5.80343  0.578025
5.82243  0.626093
5.84143  0.94654
5.86044  1.04584
5.87944  0.407351
5.89844  0.174363
5.91745  -0.258963
5.93645  0.155469
5.95545  0.334325
5.97446  0.569912
5.99346  0.50677
6.01246  0.556706
6.03147  0.255778
6.05047  0.106535
6.06947  0.0463493
6.08848  0.168295
6.10748  0.474865
6.12648  0.729172
6.14549  0.897895
6.16449  0.991001
6.18349  1.33068
6.2025  2.53992
6.2215  2.90963
6.2405  5.53042
6.25951  6.07351
6.27851  6.82852
6.29751  4.26392
6.31652  2.70551
6.33552  1.00052
6.35452  0.947738
6.37353  1.83031
6.39253  3.73104
6.41153  6.92789
6.43054  9.12558
6.44954  9.6438
6.46854  7.3062
6.48755  4.249
6.50655  2.36001
6.52555  1.46384
6.54456  1.22519
6.56356  1.13535
6.58256  0.417407
6.60157  0.125529
6.62057  0.401719
6.63957  0.787357
6.65857  0.812162
6.67758  1.3707
6.69658  2.95614
6.71558  6.21379
6.73459  10.4548
6.75359  19.1826
6.77259  26.6528
6.7916  35.8021
6.8106  41.854
6.8296  44.0987
6.84861  36.7245
6.86761  27.4425
6.88661  16.5124
6.90562  10.5569
6.92462  5.57165
6.94362  2.20524
6.96263  1.54387
6.98163  1.32623
7.00063  1.09017
7.01964  0.502076
7.03864  0.374545
7.05764  0.592053
7.07665  1.00837
7.09565  0.959163
7.11465  0.395086
7.13366  0.034919
7.15266  0.0127142
7.17166  0.06267
7.19067  0.000713313
7.20967  0.0440808
7.22867  0.150492
7.24768  0.25498
7.26668  0.675551
7.28568  0.63976
7.30469  0.311664
7.32369  0.339164
7.34269  0.200021
7.3617  0.585915
7.3807  0.334741
7.3997  0.440333
7.41871  0.372668
7.43771  0.225036
7.45671  0.117741
7.47572  -0.117753
7.49472  0.279162
7.51372  0.588555
7.53273  0.547685
7.55173  0.163362
7.57073  0.173176
7.58973  0.789102
7.60874  0.884555
7.62774  0.598014
7.64674  0.0370921
7.66575  0.0204793
7.68475  0.144728
7.70375  0.377334
7.72276  0.273025
7.74176  0.591438
7.76076  0.459277
7.77977  0.263265
7.79877  0.0995964
7.81777  0.426798
7.83678  0.701958
7.85578  0.574849
7.87478  0.0677343
7.89379  0.17039
7.91279  -0.0837766
7.93179  -0.060042
7.9508  -0.125094
7.9698  0.0857295
7.9888  0.304255
8.00781  0.626335
8.02681  1.11447
8.04581  1.10504
8.06482  0.712325
8.08382  0.445588
8.10282  0.329899
8.12183  0.219335
8.14083  0.36354
8.15983  0.420798
8.17884  0.713013
8.19784  0.537152
8.21684  0.617016
8.23585  0.780101
8.25485  0.830637
8.27385  0.770755
8.29286  0.859947
8.31186  1.07509
8.33086  1.00506
8.34987  0.633683
8.36887  0.681998
8.38787  0.6437
8.40688  0.54744
8.42588  0.292389
8.44488  0.513698
8.46389  0.813975
8.48289  0.741756
8.50189  0.625368
8.52089  0.50054
8.5399  0.50286
8.5589  0.510381
8.5779  0.858958
8.59691  0.914588
8.61591  0.738188
8.63491  0.296501
8.65392  0.0665934
8.67292  -0.171655
8.69192  -0.226708
8.71093  0.118367
8.72993  0.70439
8.74893  0.812785
8.76794  0.72745
8.78694  0.757005
8.80594  1.03951
8.82495  1.17703
8.84395  1.17229
8.86295  1.17373
8.88196  1.1947
8.90096  0.965635
8.91996  1.05702
8.93897  1.81458
8.95797  3.29072
8.97697  5.06768
8.99598  7.72616
9.01498  11.6341
9.03398  19.6952
9.05299  36.4943
9.07199  66.9356
9.09099  107.378
9.11  146.802
9.129  201
9.148  248.789
9.16701  275.799
9.18601  261.378
9.20501  219.023
9.22402  176.617
9.24302  133.557
9.26202  107.722
9.28103  93.4132
9.30003  93.8505
9.31903  90.3506
9.33804  102.847
9.35704  107.581
9.37604  113.061
9.39505  100.055
9.41405  87.3953
9.43305  65.2299
9.45206  44.8019
9.47106  26.5613
9.49006  15.3409
9.50906  8.94971
9.52807  5.69045
9.54707  3.61733
9.56607  2.59323
9.58508  1.92749
9.60408  1.39844
9.62308  1.0171
9.64209  0.876177
9.66109  0.767597
9.68009  0.784059
9.6991  0.651591
9.7181  0.199909
9.7371  -0.00993002
9.75611  -0.146953
9.77511  -0.180432
9.79411  -0.0385103
9.81312  0.404123
9.83212  0.640397
9.85112  0.582622
9.87013  1.24969
9.88913  1.66138
9.90813  2.39807
9.92714  3.05736
9.94614  3.37591
9.96514  3.07692
9.98415  2.54245
10.0031  2.03007
10.0222  1.83065
10.0412  1.78553
10.0602  2.45933
10.0792  4.12745
10.0982  8.52289
10.1172  16.4073
10.1362  25.7612
10.1552  32.6578
10.1742  34.3293
10.1932  33.2489
10.2122  29.5771
10.2312  26.3482
10.2502  23.2607
10.2692  20.272
10.2882  14.8965
10.3072  9.0981
10.3262  5.88355
10.3452  4.15908
10.3642  3.18884
10.3832  2.61089
10.4022  2.29462
10.4212  2.50481
10.4402  2.61601
10.4592  3.06468
10.4782  3.38059
10.4972  4.01035
10.5162  4.83004
10.5352  5.84466
10.5542  7.10968
10.5732  9.5056
10.5923  12.2699
10.6113  16.4514
10.6303  23.3706
10.6493  41.3364
10.6683  61.2642
10.6873  89.8674
10.7063  104.103
10.7253  115.328
10.7443  110.433
10.7633  98.2301
10.7823  74.2595
10.8013  51.0797
10.8203  34.0065
10.8393  21.4114
10.8583  14.762
10.8773  10.6468
10.8963  8.45471
10.9153  6.6985
10.9343  5.09103
10.9533  4.1373
10.9723  3.37508
10.9913  3.14761
11.0103  2.58963
11.0293  2.08012
11.0483  1.71236
11.0673  1.31095
11.0863  1.04399
11.1053  1.18875
11.1243  1.99849
11.1433  3.79614
11.1623  4.46771
11.1814  3.6582
11.2004  2.06384
11.2194  1.354
11.2384  1.1385
11.2574  1.25579
11.2764  1.13548
11.2954  1.31672
11.3144  1.36358
11.3334  1.43083
11.3524  1.12801
11.3714  0.783992
11.3904  -0.0346348
11.4094  -0.0624481
11.4284  -0.066929
11.4474  0.00710276
11.4664  -0.158236
11.4854  -0.0693647
11.5044  -0.0846034
11.5234  -0.233672
11.5424  -0.320583
11.5614  -0.238046
11.5804  -0.1662
11.5994  -0.33084
11.6184  -0.0126733
11.6374  0.303398
11.6564  1.07573
11.6754  1.33402
11.6944  1.72051
11.7134  2.03154
11.7324  2.9991
11.7515  4.43117
11.7705  5.25147
11.7895  5.74844
11.8085  5.87218
11.8275  5.92025
11.8465  5.65702
11.8655  5.85564
11.8845  6.55346
11.9035  8.09293
11.9225  9.93527
11.9415  12.7012
11.9605  17.4471
11.9795  26.8551
11.9985  43.3716
12.0175  69.1469
12.0365  94.7143
12.0555  113.505
12.0745  121.855
12.0935  123.268
12.1125  117.949
12.1315  101.175
12.1505  79.9026
12.1695  55.4322
12.1885  37.4738
12.2075  26.4048
12.2265  19.8931
12.2455  15.3648
12.2645  12.301
12.2835  10.3158
12.3025  8.74049
12.3215  7.75052
12.3406  6.73692
12.3596  5.84342
12.3786  5.64486
12.3976  5.61557
12.4166  5.45836
12.4356  5.20003
12.4546  4.6781
12.4736  4.4045
12.4926  4.2082
12.5116  4.2729
12.5306  4.218
12.5496  4.12912
12.5686  4.49822
12.5876  5.04263
12.6066  5.51051
12.6256  5.94599
12.6446  6.68805
12.6636  8.36645
12.6826  9.8656
12.7016  12.4621
12.7206  14.9975
12.7396  20.1981
12.7586  28.1671
12.7776  43.9967
12.7966  70.6109
12.8156  97.5272
12.8346  118.267
12.8536  132.296
12.8726  136.784
12.8916  125.248
12.9106  103.473
12.9297  82.7307
12.9487  65.5632
12.9677  45.9918
12.9867  32.4347
13.0057  19.5026
13.0247  13.7741
13.0437  9.37921
13.0627  6.45049
13.0817  5.28517
13.1007  4.10317
13.1197  3.17625
13.1387  2.51517
13.1577  2.0138
13.1767  1.39651
13.1957  1.11591
13.2147  0.722974
13.2337  0.904488
13.2527  0.796523
13.2717  1.06236
13.2907  1.35166
13.3097  1.80123
13.3287  2.12403
13.3477  2.20779
13.3667  1.57691
13.3857  1.06816
13.4047  0.560952
13.4237  0.14025
13.4427  -0.111458
13.4617  -0.177434
13.4807  0.338525
13.4998  0.594292
13.5188  1.06341
13.5378  1.39036
13.5568  2.5054
13.5758  4.57398
13.5948  6.5144
13.6138  8.31542
13.6328  9.47965
13.6518  10.1203
13.6708  10.0976
13.6898  8.69551
13.7088  6.62694
13.7278  4.64077
13.7468  3.18102
13.7658  2.1017
13.7848  1.47486
13.8038  0.99721
13.8228  0.742366
13.8418  0.59591
13.8608  0.0524671
13.8798  0.00864082
13.8988  0.120634
13.9178  0.256614
13.9368  0.333928
13.9558  0.581819
13.9748  0.679929
13.9938  0.524564
14.0128  0.114741
14.0318  0.29098
14.0508  0.310293
14.0698  0.432156
14.0889  0.42817
14.1079  0.488874
14.1269  0.657644
14.1459  0.335683
14.1649  0.24975
14.1839  0.137706
14.2029  0.463219
14.2219  0.45924
14.2409  0.0189138
14.2599  -0.204244
14.2789  -0.0772792
14.2979  0.228602
14.3169  0.458369
14.3359  0.991079
14.3549  1.24507
14.3739  1.2827
14.3929  1.46176
14.4119  1.62165
14.4309  1.60203
14.4499  1.25936
14.4689  0.991622
14.4879  0.909307
14.5069  1.14935
14.5259  1.13226
14.5449  1.11144
14.5639  1.11104
14.5829  1.11819
14.6019  0.864953
14.6209  0.631351
14.6399  0.477653
14.6589  0.382155
14.678  0.467875
14.697  0.762141
14.716  0.847631
14.735  0.857298
14.754  0.697618
14.773  0.704058
14.792  0.575699
14.811  0.412598
14.83  0.645727
14.849  0.991294
14.868  1.35888
14.887  1.44723
14.906  1.45073
14.925  1.63819
14.944  1.87795
14.963  2.30818
14.982  2.22825
15.001  2.11217
15.02  2.12704
15.039  2.12035
15.058  2.04011
15.077  1.91867
15.096  2.12614
15.115  2.25466
15.134  2.18257
15.153  2.15025
15.172  2.48788
15.191  2.75306
15.21  2.75943
15.229  2.90567
15.2481  3.30438
15.2671  3.87954
15.2861  4.65497
15.3051  5.68711
15.3241  7.20808
15.3431  8.64603
15.3621  11.5423
15.3811  16.8014
15.4001  26.3048
15.4191  32.5242
15.4381  38.7016
15.4571  43.4639
15.4761  49.8984
15.4951  51.323
15.5141  46.0831
15.5331  42.2331
15.5521  34.5311
15.5711  26.792
15.5901  19.1584
15.6091  12.1926
15.6281  10.2907
15.6471  9.11518
15.6661  9.48281
15.6851  11.0999
15.7041  14.5969
15.7231  19.9665
15.7421  28.4045
15.7611  37.673
15.7801  45.374
15.7991  50.0707
15.8181  50.8727
15.8372  46.9599
15.8562  40.0296
15.8752  30.643
15.8942  21.1014
15.9132  14.0897
15.9322  9.64679
15.9512  6.9951
15.9702  5.56321
15.9892  4.50331
16.0082  3.5431
16.0272  3.10213
16.0462  3.09428
16.0652  3.08356
16.0842  2.82032
16.1032  2.85446
16.1222  3.25458
16.1412  3.37469
16.1602  3.22868
16.1792  3.11534
16.1982  2.89351
16.2172  2.59496
16.2362  2.26763
16.2552  2.30273
16.2742  2.27937
16.2932  2.25846
16.3122  2.48086
16.3312  2.73032
16.3502  3.21627
16.3692  3.43693
16.3882  4.75368
16.4073  4.71965
16.4263  4.73871
16.4453  3.73169
16.4643  4.18674
16.4833  3.37439
16.5023  3.59608
16.5213  3.87206
16.5403  3.95419
16.5593  3.47851
16.5783  2.13292
16.5973  1.75269
16.6163  1.54905
16.6353  1.98678
16.6543  2.37684
16.6733  2.58432
16.6923  2.29883
16.7113  1.96671
16.7303  1.97484
16.7493  2.13934
16.7683  2.43928
16.7873  2.99571
16.8063  3.08111
16.8253  3.02733
16.8443  2.67714
16.8633  2.95432
16.8823  3.34013
16.9013  3.65831
16.9203  3.77965
16.9393  3.97085
16.9583  4.21773
16.9773  4.80178
16.9964  5.63367
17.0154  6.95986
17.0344  8.56189
17.0534  10.4774
17.0724  11.8482
17.0914  13.194
17.1104  16.2993
17.1294  22.8137
17.1484  33.7177
17.1674  45.8888
17.1864  56.9452
17.2054  64.6512
17.2244  64.2627
17.2434  61.1916
17.2624  54.5528
17.2814  51.4217
17.3004  45.4478
17.3194  42.6265
17.3384  37.9262
17.3574  34.4963
17.3764  32.6576
17.3954  30.1086
17.4144  27.9227
17.4334  26.5515
17.4524  24.3738
17.4714  20.319
17.4904  18.2507
17.5094  15.4891
17.5284  13.6394
17.5474  12.6566
17.5664  11.6328
17.5855  10.9745
17.6045  10.2308
17.6235  9.45439
17.6425  8.6503
17.6615  8.47794
17.6805  8.52524
17.6995  8.32499
17.7185  8.03426
17.7375  8.07041
17.7565  8.20758
17.7755  8.50898
17.7945  8.58103
17.8135  8.63965
17.8325  8.58304
17.8515  8.62887
17.8705  8.85788
17.8895  9.30827
17.9085  10.339
17.9275  10.7818
17.9465  10.9712
17.9655  10.0938
17.9845  9.2578
18.0035  8.26787
18.0225  7.96046
18.0415  7.76863
18.0605  7.76293
18.0795  7.96612
18.0985  7.88067
18.1175  8.09675
18.1365  8.04474
18.1556  8.95753
18.1746  10.1316
18.1936  12.9406
18.2126  18.2908
18.2316  25.7566
18.2506  32.8981
18.2696  37.5382
18.2886  39.8289
18.3076  37.6444
18.3266  34.39
18.3456  31.3866
18.3646  28.8942
18.3836  25.6925
18.4026  21.8393
18.4216  17.5087
18.4406  13.9443
18.4596  11.248
18.4786  9.04452
18.4976  6.8463
18.5166  4.61747
18.5356  3.15402
18.5546  1.75369
18.5736  0.954305
18.5926  0.543311
18.6116  0.152592
18.6306  -0.165817
18.6496  -0.421392
18.6686  -0.529684
18.6876  -0.239999
18.7066  0.251216
18.7256  1.39105
18.7447  3.95327
18.7637  9.03389
18.7827  15.5341
18.8017  20.5772
18.8207  25.7432
18.8397  26.7123
18.8587  24.2831
18.8777  20.3025
18.8967  18.9306
18.9157  18.4174
18.9347  15.2438
18.9537  10.6754
18.9727  7.06557
18.9917  4.67792
19.0107  4.07594
19.0297  3.14971
19.0487  10.1664
19.0677  12.7801
19.0867  14.0727
19.1057  17.4097
19.1247  19.1487
19.1437  20.4259
19.1627  16.5636
19.1817  12.3299
19.2007  10.6014
19.2197  8.10383
19.2387  7.04099
19.2577  4.75765
19.2767  2.48523
19.2957  1.61324
19.3148  0.359122
19.3338  0.185591
19.3528  -0.2772
19.3718  -0.195796
19.3908  -0.314682
19.4098  -0.290125
19.4288  -0.343505
19.4478  -0.479852
19.4668  -0.428357
19.4858  -0.276929
19.5048  -0.077642
19.5238  -0.110304
19.5428  0.0244786
19.5618  -0.186648
19.5808  0.125648
19.5998  0.201218
19.6188  0.47946
19.6378  0.459692
19.6568  0.404127
19.6758  0.350815
19.6948  0.313577
19.7138  0.414653
19.7328  0.377493
19.7518  0.400705
19.7708  0.650737
19.7898  1.13039
19.8088  1.5375
19.8278  1.86182
19.8468  2.74639
19.8658  3.75361
19.8848  5.02724
19.9039  6.16006
19.9229  6.00301
19.9419  5.68167
19.9609  4.6121
19.9799  3.18527
19.9989  1.79217
20.0179  1.23611
20.0369  0.689194
20.0559  0.355442
20.0749  0.218213
20.0939  0.188039
20.1129  -0.0114587
20.1319  -0.0107413
20.1509  -0.122874
20.1699  -0.0407156
20.1889  -0.03255
20.2079  0.180832
20.2269  0.296747
20.2459  0.456674
20.2649  0.417051
20.2839  0.620727
20.3029  0.738761
20.3219  0.904983
20.3409  0.99109
20.3599  1.11042
20.3789  1.3312
20.3979  1.76236
20.4169  1.96396
20.4359  1.69056
20.4549  1.27167
20.4739  1.01456
20.493  0.816151
20.512  0.679462
20.531  0.596878
20.55  0.441298
20.569  0.435464
20.588  0.58696
20.607  0.538553
20.626  0.259592
20.645  0.0723975
20.664  0.116005
20.683  0.151109
20.702  -0.0118477
20.721  -0.193167
20.74  -0.172413
20.759  -0.0523761
20.778  0.288065
20.797  0.418894
20.816  0.530195
20.835  0.594787
20.854  0.838051
20.873  1.17398
20.892  1.83254
20.911  3.25613
20.93  6.09588
20.949  9.44221
20.968  10.9104
20.987  11.4635
21.006  8.95015
21.025  6.16419
21.044  3.03078
21.0631  1.50026
21.0821  0.503784
21.1011  0.120478
21.1201  -0.0449039
21.1391  -0.111218
21.1581  0.153433
21.1771  0.276132
21.1961  0.196815
21.2151  -0.0551718
21.2341  -0.0813535
21.2531  0.13252
21.2721  0.218699
21.2911  0.397116
21.3101  0.209567
21.3291  0.0873421
21.3481  0.0100036
21.3671  0.0593812
21.3861  0.225183
21.4051  0.306139
21.4241  0.150078
21.4431  0.108743
21.4621  0.0422148
21.4811  0.0195478
21.5001  -0.021731
21.5191  0.0980436
21.5381  0.124448
21.5571  0.0975183
21.5761  0.0139382
21.5951  -0.0520591
21.6141  -0.0541847
21.6331  0.0470714
21.6522  0.158608
21.6712  0.188605
21.6902  0.0877458
21.7092  -0.0181275
21.7282  -0.0902277
21.7472  0.120887
21.7662  0.308174
21.7852  0.273701
21.8042  0.250247
21.8232  0.190496
21.8422  0.0050873
21.8612  -0.10239
21.8802  -0.158265
21.8992  -0.0223214
21.9182  0.0409695
21.9372  0.0922905
21.9562  0.0411627
21.9752  -0.0532582
21.9942  -0.0644362
22.0132  0.0733617
22.0322  -0.0210754