File: data/processed/Run2_XRD/20_ReMoB2_815psi_noRuby_S_P1_C1_D1w_127.dat
2.93393  0.497345
2.95294  -0.0354553
2.97194  0.266965
2.99094  0.749281
3.00995  1.36318
3.02895  0.86579
3.04795  0.196482
3.06696  -0.201841
3.08596  0.148836
3.10496  0.678486
3.12397  0.530295
3.14297  0.440025
3.16197  0.367839
3.18098  0.612028
3.19998  1.01128
3.21898  0.969237
3.23799  0.615883
3.25699  0.307361
3.27599  0.812103
3.295  1.13343
3.314  1.18304
3.333  0.800592
3.35201  0.949565
3.37101  1.79166
3.39001  1.97898
3.40902  1.46421
3.42802  0.970242
3.44702  1.12941
3.46603  1.77007
3.48503  2.16893
3.50403  2.49633
3.52304  3.25979
3.54204  4.22659
3.56104  5.76166
3.58005  7.41412
3.59905  8.64082
3.61805  9.24576
3.63706  8.55486
3.65606  6.68455
3.67506  4.27847
3.69407  3.46005
3.71307  2.64357
3.73207  3.03168
3.75108  2.61341
3.77008  2.3239
3.78908  2.05876
3.80808  1.87051
3.82709  1.42887
3.84609  1.13964
3.86509  0.9336
3.8841  1.28949
3.9031  1.94123
3.9221  1.98671
3.94111  1.4842
3.96011  0.912084
3.97911  0.872231
3.99812  1.13243
4.01712  0.935565
4.03612  1.08409
4.05513  0.941206
4.07413  0.525848
4.09313  -0.178766
4.11214  0.0223188
4.13114  0.169556
4.15014  0.56948
4.16915  0.643858
4.18815  0.624733
4.20715  0.645931
4.22616  0.421647
4.24516  0.919204
4.26416  1.26726
4.28317  1.0373
4.30217  0.755648
4.32117  0.261472
4.34018  0.448657
4.35918  0.567079
4.37818  0.660136
4.39719  0.737058
4.41619  0.609674
4.43519  1.01303
4.4542  0.633043
4.4732  0.927972
4.4922  0.736786
4.51121  1.1528
4.53021  0.810419
4.54921  1.1118
4.56822  0.635548
4.58722  0.962569
4.60622  0.859379
4.62523  0.640728
4.64423  -0.0395689
4.66323  -0.0361282
4.68224  0.392091
4.70124  1.38875
4.72024  1.13315
4.73924  1.00276
4.75825  0.649632
4.77725  0.367379
4.79625  0.148854
4.81526  -0.11435
4.83426  0.0246747
4.85326  0.239518
4.87227  0.467062
4.89127  0.684548
4.91027  0.0469874
4.92928  -0.0610801
4.94828  0.121256
4.96728  0.283372
4.98629  0.473556
5.00529  0.445336
5.02429  0.763044
5.0433  0.529707
5.0623  0.664422
5.0813  0.593217
5.10031  0.941149
5.11931  1.27244
5.13831  1.20111
5.15732  1.1678
5.17632  1.09715
5.19532  0.517693
5.21433  0.208809
5.23333  -0.161219
5.25233  0.19446
5.27134  0.906776
5.29034  1.31748
5.30934  1.15484
5.32835  0.709045
5.34735  0.152311
5.36635  -0.0503937
5.38536  0.00464325
5.40436  0.352476
5.42336  0.57626
5.44237  0.678952
5.46137  0.243728
5.48037  0.337554
5.49938  0.340055
5.51838  0.44269
5.53738  0.371781
5.55639  0.330145
5.57539  0.28316
5.59439  0.359742
5.6134  0.502859
5.6324  0.217094
5.6514  0.280556
5.67041  0.404299
5.68941  0.574603
5.70841  0.392569
5.72741  0.358237
5.74642  0.231527
5.76542  0.318602
5.78442  0.129806
5.80343  0.0691056
5.82243  -0.0121858
5.84143  0.302665
5.86044  0.630717
5.87944  0.656039
5.89844  0.857646
5.91745  1.06083
5.93645  2.12196
5.95545  2.58004
5.97446  3.38584
5.99346  3.51947
6.01246  4.02596
6.03147  3.66765
6.05047  2.91782
6.06947  1.93275
6.08848  1.31422
6.10748  1.42112
6.12648  1.40947
6.14549  0.989873
6.16449  0.655879
6.18349  0.26631
6.2025  0.0408559
6.2215  -0.0670151
6.2405  0.037967
6.25951  0.191507
6.27851  0.148517
6.29751  0.282885
6.31652  0.239039
6.33552  0.0898307
6.35452  -0.154602
6.37353  -0.165473
6.39253  0.169875
6.41153  0.447722
6.43054  0.90182
6.44954  1.06758
6.46854  1.14932
6.48755  1.15325
6.50655  1.18094
6.52555  1.14944
6.54456  1.73064
6.56356  2.98358
6.58256  4.44482
6.60157  5.76506
6.62057  6.24988
6.63957  6.15643
6.65857  5.68563
6.67758  4.46357
6.69658  2.97006
6.71558  1.81689
6.73459  1.44246
6.75359  1.03398
6.77259  0.597608
6.7916  0.0917626
6.8106  -0.0803515
6.8296  0.433596
6.84861  0.567964
6.86761  0.719268
6.88661  1.04689
6.90562  1.63445
6.92462  2.58934
6.94362  4.22879
6.96263  5.97973
6.98163  7.93507
7.00063  10.3689
7.01964  12.3371
7.03864  13.9524
7.05764  15.1077
7.07665  15.6895
7.09565  15.928
7.11465  16.536
7.13366  18.2237
7.15266  21.2331
7.17166  26.3792
7.19067  31.7464
7.20967  38.5108
7.22867  43.3357
7.24768  45.0226
7.26668  43.065
7.28568  40.0726
7.30469  35.0978
7.32369  29.5475
7.34269  24.1056
7.3617  19.4225
7.3807  16.4085
7.3997  13.7556
7.41871  11.8198
7.43771  10.1463
7.45671  8.83158
7.47572  7.68618
7.49472  6.70008
7.51372  5.67487
7.53273  4.6478
7.55173  3.81349
7.57073  3.52254
7.58973  3.55705
7.60874  3.43789
7.62774  2.99966
7.64674  2.68351
7.66575  2.36608
7.68475  2.35572
7.70375  2.12982
7.72276  1.69977
7.74176  1.37723
7.76076  1.39658
7.77977  1.4474
7.79877  1.25032
7.81777  1.16036
7.83678  1.03079
7.85578  0.835849
7.87478  0.684348
7.89379  0.288678
7.91279  0.106132
7.93179  0.00834324
7.9508  0.337595
7.9698  0.444352
7.9888  0.292308
8.00781  0.429775
8.02681  0.584011
8.04581  0.484286
8.06482  0.171967
8.08382  0.230946
8.10282  0.0246812
8.12183  0.134573
8.14083  0.211798
8.15983  0.617265
8.17884  0.462282
8.19784  0.0696893
8.21684  0.050933
8.23585  0.357551
8.25485  0.372907
8.27385  0.153204
8.29286  0.0164885
8.31186  0.424916
8.33086  0.564049
8.34987  0.310296
8.36887  -0.203386
8.38787  -0.254741
8.40688  0.0847771
8.42588  0.231784
8.44488  0.50796
8.46389  0.473044
8.48289  0.344264
8.50189  0.114351
8.52089  0.0915788
8.5399  0.179579
8.5589  0.362739
8.5779  0.420161
8.59691  0.32964
8.61591  0.197184
8.63491  0.0357613
8.65392  -0.221071
8.67292  -0.314838
8.69192  -0.0239204
8.71093  0.182613
8.72993  0.363463
8.74893  0.358581
8.76794  0.217823
8.78694  0.0216716
8.80594  -0.0581977
8.82495  0.181865
8.84395  0.240884
8.86295  0.292116
8.88196  -0.146027
8.90096  -0.32554
8.91996  -0.342166
8.93897  -0.236349
8.95797  -0.100639
8.97697  -0.0632282
8.99598  0.0117967
9.01498  -0.0107493
9.03398  -0.0225604
9.05299  -0.103312
9.07199  0.0366805
9.09099  0.388679
9.11  0.720516
9.129  1.08612
9.148  1.35817
9.16701  2.04397
9.18601  2.94846
9.20501  3.62401
9.22402  4.04097
9.24302  4.6481
9.26202  5.673
9.28103  6.95735
9.30003  9.17945
9.31903  11.695
9.33804  14.8178
9.35704  18.4223
9.37604  23.6304
9.39505  30.4868
9.41405  39.832
9.43305  51.4238
9.45206  67.3022
9.47106  87.9928
9.49006  114.337
9.50906  147.508
9.52807  184.635
9.54707  223.635
9.56607  258.434
9.58508  281.147
9.60408  290.386
9.62308  288.759
9.64209  280.591
9.66109  268.121
9.68009  252.197
9.6991  236.165
9.7181  219.185
9.7371  203.546
9.75611  188.152
9.77511  172.826
9.79411  157.529
9.81312  144.079
9.83212  132.599
9.85112  122.059
9.87013  112.681
9.88913  105.244
9.90813  97.8366
9.92714  92.347
9.94614  87.1801
9.96514  83.0759
9.98415  79.8801
10.0031  75.9693
10.0222  72.3395
10.0412  68.7041
10.0602  64.5579
10.0792  60.4238
10.0982  55.6802
10.1172  51.2302
10.1362  46.4409
10.1552  41.9629
10.1742  37.655
10.1932  34.1378
10.2122  30.7337
10.2312  27.7812
10.2502  24.675
10.2692  21.7179
10.2882  18.4636
10.3072  15.4531
10.3262  12.6606
10.3452  10.6847
10.3642  8.76641
10.3832  7.2977
10.4022  5.46065
10.4212  3.92304
10.4402  2.67095
10.4592  2.10545
10.4782  1.25959
10.4972  0.59599
10.5162  -0.16293
10.5352  -0.690862
10.5542  -1.20248
10.5732  -0.960721
10.5923  -0.871644
10.6113  -0.639526
10.6303  -0.115302
10.6493  1.00641
10.6683  2.60075
10.6873  4.1508
10.7063  5.3496
10.7253  5.93831
10.7443  6.25753
10.7633  7.0146
10.7823  7.17179
10.8013  6.89027
10.8203  5.77387
10.8393  5.15445
10.8583  4.61363
10.8773  4.31755
10.8963  3.59075
10.9153  3.4912
10.9343  2.95337
10.9533  2.47481
10.9723  2.13355
10.9913  1.60762
11.0103  1.08316
11.0293  1.0673
11.0483  1.35404
11.0673  2.19526
11.0863  2.73589
11.1053  3.13563
11.1243  3.53013
11.1433  4.02222
11.1623  4.30173
11.1814  4.41269
11.2004  4.36495
11.2194  4.20445
11.2384  3.45324
11.2574  2.94391
11.2764  2.72198
11.2954  2.73675
11.3144  2.30585
11.3334  1.87499
11.3524  1.40483
11.3714  1.44995
11.3904  1.88214
11.4094  2.38837
11.4284  2.7834
11.4474  2.68466
11.4664  2.61336
11.4854  2.14579
11.5044  2.3967
11.5234  2.07654
11.5424  1.76317
11.5614  1.52105
11.5804  1.27305
11.5994  1.19946
11.6184  0.910274
11.6374  0.959213
11.6564  0.775096
11.6754  0.99661
11.6944  1.09352
11.7134  0.836659
11.7324  0.580346
11.7515  0.0839136
11.7705  0.0928475
11.7895  -0.17978
11.8085  -0.371957
11.8275  -0.401181
11.8465  -0.550262
11.8655  -0.73059
11.8845  -0.779624
11.9035  -0.644486
11.9225  -0.568834
11.9415  -0.223539
11.9605  -0.0739486
11.9795  0.0138017
11.9985  0.123664
12.0175  0.422108
12.0365  0.698783
12.0555  1.02827
12.0745  1.2483
12.0935  2.28798
12.1125  3.59887
12.1315  5.03118
12.1505  5.99302
12.1695  6.88455
12.1885  8.47566
12.2075  10.5896
12.2265  12.8772
12.2455  15.146
12.2645  19.0625
12.2835  23.7312
12.3025  29.774
12.3215  36.8663
12.3406  46.1542
12.3596  58.2609
12.3786  73.5514
12.3976  92.9813
12.4166  118.788
12.4356  148.846
12.4546  187.398
12.4736  231.504
12.4926  281.356
12.5116  335.441
12.5306  387.895
12.5496  432.408
12.5686  463.989
12.5876  483.336
12.6066  487.064
12.6256  476.217
12.6446  454.219
12.6636  422.235
12.6826  382.645
12.7016  338.086
12.7206  291.046
12.7396  245.388
12.7586  201.364
12.7776  161.877
12.7966  129.201
12.8156  102.371
12.8346  82.1922
12.8536  66.9474
12.8726  55.8245
12.8916  48.1455
12.9106  41.6616
12.9297  36.795
12.9487  32.4467
12.9677  29.3874
12.9867  27.0002
13.0057  24.8917
13.0247  22.9351
13.0437  20.6592
13.0627  18.9269
13.0817  17.4233
13.1007  16.3377
13.1197  15.1906
13.1387  14.4693
13.1577  13.2498
13.1767  11.8434
13.1957  10.3424
13.2147  9.2053
13.2337  8.33513
13.2527  7.35951
13.2717  6.7985
13.2907  6.24421
13.3097  5.78375
13.3287  5.08925
13.3477  4.26048
13.3667  3.78633
13.3857  2.92611
13.4047  2.76338
13.4237  2.35172
13.4427  2.21371
13.4617  2.00244
13.4807  2.07763
13.4998  1.88789
13.5188  1.72705
13.5378  1.82934
13.5568  2.24828
13.5758  2.64845
13.5948  2.87727
13.6138  2.88045
13.6328  2.88641
13.6518  2.88643
13.6708  2.9255
13.6898  3.1217
13.7088  3.17644
13.7278  3.28909
13.7468  3.2693
13.7658  3.15939
13.7848  3.15557
13.8038  2.74423
13.8228  2.36475
13.8418  2.08194
13.8608  1.78637
13.8798  1.38904
13.8988  1.07155
13.9178  0.434252
13.9368  0.237074
13.9558  0.160306
13.9748  0.491842
13.9938  0.304893
14.0128  0.0758377
14.0318  -0.493013
14.0508  -0.637243
14.0698  -0.549393
14.0889  -0.489872
14.1079  -0.171389
14.1269  -0.253379
14.1459  0.110429
14.1649  0.31296
14.1839  0.607965
14.2029  0.861124
14.2219  1.24305
14.2409  1.51428
14.2599  1.74974
14.2789  1.87387
14.2979  2.60884
14.3169  3.61325
14.3359  4.79229
14.3549  5.58544
14.3739  5.98998
14.3929  6.18287
14.4119  6.10425
14.4309  6.4113
14.4499  6.77776
14.4689  7.04239
14.4879  6.76117
14.5069  6.65921
14.5259  6.97703
14.5449  7.43676
14.5639  7.47725
14.5829  7.58124
14.6019  7.53305
14.6209  7.62892
14.6399  7.43462
14.6589  7.07819
14.678  6.592
14.697  6.15168
14.716  5.49039
14.735  4.69084
14.754  3.8914
14.773  2.88137
14.792  2.19342
14.811  1.74581
14.83  1.73934
14.849  1.15245
14.868  0.848919
14.887  0.25367
14.906  0.311173
14.925  0.368198
14.944  0.386564
14.963  0.156441
14.982  -0.165056
15.001  -0.268541
15.02  -0.194541
15.039  -0.278225
15.058  -0.44803
15.077  -0.317321
15.096  -0.105517
15.115  0.00197585
15.134  -0.0548985
15.153  -0.154354
15.172  -0.23971
15.191  -0.234806
15.21  -0.343931
15.229  -0.130813
15.2481  0.100889
15.2671  0.0304716
15.2861  0.13234
15.3051  -0.0787552
15.3241  0.191042
15.3431  0.231976
15.3621  0.307537
15.3811  0.221519
15.4001  0.616412
15.4191  0.637383
15.4381  0.655334
15.4571  0.639001
15.4761  1.09369
15.4951  1.33871
15.5141  1.51689
15.5331  1.32798
15.5521  0.962624
15.5711  0.746001
15.5901  0.697273
15.6091  0.824826
15.6281  1.00156
15.6471  1.00838
15.6661  0.938059
15.6851  0.751514
15.7041  0.598162
15.7231  0.613124
15.7421  0.434075
15.7611  0.565019
15.7801  0.723736
15.7991  0.645609
15.8181  0.378482
15.8372  -0.0277486
15.8562  -0.0620621
15.8752  0.0649754
15.8942  0.630714
15.9132  0.623698
15.9322  0.387803
15.9512  0.223289
15.9702  0.299492
15.9892  0.259161
16.0082  -0.140841
16.0272  -0.273508
16.0462  -0.0437006
16.0652  0.125646
16.0842  -0.106924
16.1032  -0.0220678
16.1222  0.26577
16.1412  0.530644
16.1602  0.55195
16.1792  0.61247
16.1982  0.81463
16.2172  1.08702
16.2362  1.66572
16.2552  2.34586
16.2742  3.00445
16.2932  3.28409
16.3122  3.48405
16.3312  4.04318
16.3502  4.76839
16.3692  5.95939
16.3882  7.29481
16.4073  8.32563
16.4263  9.65843
16.4453  11.3675
16.4643  13.4423
16.4833  15.8206
16.5023  17.7071
16.5213  20.1524
16.5403  22.7173
16.5593  25.3611
16.5783  28.2307
16.5973  31.0344
16.6163  33.0633
16.6353  34.7631
16.6543  35.8023
16.6733  36.9924
16.6923  37.5064
16.7113  37.7152
16.7303  37.5223
16.7493  36.9664
16.7683  36.6381
16.7873  36.0107
16.8063  34.7859
16.8253  33.8766
16.8443  32.4154
16.8633  31.1738
16.8823  30.0813
16.9013  28.9136
16.9203  27.7565
16.9393  26.4852
16.9583  25.1069
16.9773  24.0986
16.9964  22.8474
17.0154  22.0137
17.0344  21.5014
17.0534  20.6882
17.0724  19.3885
17.0914  17.8734
17.1104  16.6638
17.1294  16.1952
17.1484  15.5618
17.1674  15.0671
17.1864  14.3151
17.2054  13.3353
17.2244  12.1563
17.2434  11.4307
17.2624  10.906
17.2814  9.89989
17.3004  8.83191
17.3194  7.89804
17.3384  7.1859
17.3574  6.86003
17.3764  6.10267
17.3954  5.57943
17.4144  4.507
17.4334  3.79651
17.4524  3.61852
17.4714  3.68899
17.4904  3.37503
17.5094  2.94198
17.5284  2.46557
17.5474  2.31701
17.5664  2.39127
17.5855  2.41032
17.6045  2.6009
17.6235  2.58508
17.6425  2.54192
17.6615  2.55737
17.6805  2.65648
17.6995  2.7491
17.7185  2.88141
17.7375  3.05573
17.7565  2.79511
17.7755  2.77227
17.7945  3.02549
17.8135  3.05994
17.8325  3.01859
17.8515  2.88009
17.8705  2.61116
17.8895  2.64787
17.9085  2.82153
17.9275  2.93829
17.9465  3.16424
17.9655  3.14358
17.9845  3.1092
18.0035  2.91363
18.0225  3.16563
18.0415  3.41195
18.0605  3.46671
18.0795  3.47515
18.0985  3.5341
18.1175  3.68146
18.1365  4.03183
18.1556  4.7474
18.1746  5.29175
18.1936  5.59249
18.2126  5.93497
18.2316  6.78784
18.2506  7.92456
18.2696  9.10984
18.2886  10.1809
18.3076  11.141
18.3266  12.2597
18.3456  13.5952
18.3646  15.4072
18.3836  17.2415
18.4026  19.542
18.4216  21.6995
18.4406  24.1831
18.4596  26.5225
18.4786  29.1868
18.4976  31.6013
18.5166  33.7719
18.5356  35.6391
18.5546  37.6194
18.5736  39.7878
18.5926  41.1611
18.6116  42.2549
18.6306  42.5849
18.6496  42.411
18.6686  41.3004
18.6876  40.0602
18.7066  38.3102
18.7256  36.2574
18.7447  33.6737
18.7637  31.1664
18.7827  28.3525
18.8017  25.597
18.8207  22.7285
18.8397  20.0007
18.8587  17.0423
18.8777  14.5342
18.8967  12.4658
18.9157  10.2142
18.9347  8.05418
18.9537  6.30462
18.9727  4.96619
18.9917  4.03362
19.0107  3.24616
19.0297  2.75077
19.0487  2.43409
19.0677  1.80171
19.0867  1.49064
19.1057  1.30737
19.1247  1.28848
19.1437  1.10162
19.1627  0.928358
19.1817  0.664624
19.2007  0.349068
19.2197  0.0903755
19.2387  -0.0430814
19.2577  0.0331562
19.2767  -0.0546488
19.2957  -0.250058
19.3148  -0.213442
19.3338  -0.0277225
19.3528  0.373589
19.3718  0.343289
19.3908  0.45583
19.4098  0.375234
19.4288  0.290944
19.4478  -0.0329752
19.4668  0.025145
19.4858  0.0342712
19.5048  0.0021605
19.5238  -0.0982084
19.5428  -0.073309
19.5618  0.116961
19.5808  0.380412
19.5998  0.520629
19.6188  0.539298
19.6378  0.345786
19.6568  0.149644
19.6758  0.109141
19.6948  0.098072
19.7138  0.279335
19.7328  0.17847
19.7518  0.121097
19.7708  0.162959
19.7898  -0.0487586
19.8088  -0.0906451
19.8278  -0.126935
19.8468  -0.0500659
19.8658  -0.0655473
19.8848  0.196721
19.9039  0.359769
19.9229  0.497405
19.9419  0.355267
19.9609  0.379716
19.9799  0.375988
19.9989  0.239804
20.0179  -0.00474552
20.0369  -0.161435
20.0559  -0.0426385
20.0749  0.0032653
20.0939  0.0671805
20.1129  0.121732
20.1319  0.0762723
20.1509  -0.0527474
20.1699  -0.0874648
20.1889  0.0725154
20.2079  0.235695
20.2269  0.287329
20.2459  0.341021
20.2649  0.135777
20.2839  0.0305546
20.3029  0.130856
20.3219  0.179275
20.3409  0.0246642
20.3599  -0.00383927
20.3789  0.0822982
20.3979  0.454166
20.4169  0.375861
20.4359  0.208099
20.4549  -0.010308
20.4739  0.0976966
20.493  -0.0545612
20.512  0.0526848
20.531  0.0961655
20.55  0.342468
20.569  0.323261
20.588  0.408763
20.607  0.548231
20.626  0.570356
20.645  0.613214
20.664  0.79912
20.683  1.21703
20.702  1.38096
20.721  1.45021
20.74  1.35532
20.759  1.46724
20.778  1.68069
20.797  1.78167
20.816  1.99515
20.835  1.88609
20.854  1.74872
20.873  1.61945
20.892  1.63518
20.911  1.60616
20.93  1.56329
20.949  1.65842
20.968  1.78007
20.987  1.75519
21.006  1.66027
21.025  1.498
21.044  1.45655
21.0631  1.167
21.0821  0.691263
21.1011  0.532283
21.1201  0.759619
21.1391  0.788929
21.1581  0.529183
21.1771  0.475632
21.1961  0.61392
21.2151  0.686394
21.2341  0.646416
21.2531  0.471807
21.2721  0.196933
21.2911  0.35504
21.3101  0.493212
21.3291  0.418937
21.3481  0.145912
21.3671  0.123847
21.3861  0.099972
21.4051  0.189522
21.4241  0.131702
21.4431  0.0976347
21.4621  -0.0211073
21.4811  -0.0763323
21.5001  -0.0115989
21.5191  -0.137488
21.5381  -0.209387
21.5571  -0.196473
21.5761  0.031604
21.5951  0.0356157
21.6141  0.127057
21.6331  0.200571
21.6522  0.297137
21.6712  0.366306
21.6902  0.326989
21.7092  0.303084
21.7282  0.36695
21.7472  0.236169
21.7662  0.0270716
21.7852  -0.0173107
21.8042  -0.0137853
21.8232  0.0070025
21.8422  -0.181921
21.8612  -0.177703
21.8802  -0.171619
21.8992  0.00892443
21.9182  0.0500709
21.9372  0.159447
21.9562  0.196698
21.9752  0.195397
21.9942  -0.167254
22.0132  -0.354923
22.0322  0.205209