File: data/processed/Run2_XRD/21_ReMoB2_845psi_noRuby_S_P1_C1_D1w_133.dat
2.93393  0.367822
2.95294  0.749521
2.97194  1.34894
2.99094  1.79631
3.00995  1.83726
3.02895  1.83894
3.04795  1.70524
3.06696  2.09736
3.08596  2.04312
3.10496  2.02453
3.12397  1.48054
3.14297  0.885199
3.16197  0.539582
3.18098  0.859657
3.19998  1.07515
3.21898  1.48471
3.23799  0.953433
3.25699  1.20088
3.27599  0.915778
3.295  1.30124
3.314  1.50113
3.333  1.5105
3.35201  1.2405
3.37101  0.904734
3.39001  0.65255
3.40902  1.18158
3.42802  1.68662
3.44702  2.21879
3.46603  1.83855
3.48503  2.13191
3.50403  2.42524
3.52304  3.92327
3.54204  4.86396
3.56104  6.72949
3.58005  8.48683
3.59905  10.2057
3.61805  10.3968
3.63706  9.40528
3.65606  7.65037
3.67506  5.54404
3.69407  4.13205
3.71307  2.98921
3.73207  2.37632
3.75108  1.50903
3.77008  1.4604
3.78908  1.27777
3.80808  0.743697
3.82709  0.253533
3.84609  0.11655
3.86509  0.563041
3.8841  0.86604
3.9031  1.17336
3.9221  1.52522
3.94111  1.65197
3.96011  1.59716
3.97911  1.41059
3.99812  1.11551
4.01712  0.82723
4.03612  0.892805
4.05513  0.804926
4.07413  0.708945
4.09313  0.432973
4.11214  0.0329967
4.13114  0.0210276
4.15014  0.238606
4.16915  0.203202
4.18815  0.401984
4.20715  0.179371
4.22616  0.497171
4.24516  0.087132
4.26416  -0.0577453
4.28317  -0.048216
4.30217  0.443476
4.32117  0.495889
4.34018  0.280629
4.35918  0.360334
4.37818  0.276167
4.39719  0.186887
4.41619  0.0717077
4.43519  0.121993
4.4542  0.195785
4.4732  0.403619
4.4922  0.384241
4.51121  0.622243
4.53021  0.872888
4.54921  0.570812
4.56822  0.323236
4.58722  0.345171
4.60622  0.929742
4.62523  1.25542
4.64423  0.965746
4.66323  0.232223
4.68224  0.0555378
4.70124  -0.0182074
4.72024  0.805571
4.73924  0.949088
4.75825  0.898861
4.77725  0.202272
4.79625  -0.260026
4.81526  0.130215
4.83426  0.677922
4.85326  0.666167
4.87227  0.656132
4.89127  0.814685
4.91027  1.00441
4.92928  0.722
4.94828  1.0797
4.96728  1.04448
4.98629  1.03271
5.00529  0.297234
5.02429  0.0976568
5.0433  -0.0376168
5.0623  0.085134
5.0813  -0.0141499
5.10031  0.574765
5.11931  0.936389
5.13831  0.933118
5.15732  1.04598
5.17632  1.43948
5.19532  1.32801
5.21433  1.14541
5.23333  0.640396
5.25233  0.526427
5.27134  0.509645
5.29034  0.70344
5.30934  0.264243
5.32835  0.0554001
5.34735  -0.217208
5.36635  0.19653
5.38536  0.406681
5.40436  0.468915
5.42336  0.231295
5.44237  0.113358
5.46137  0.480751
5.48037  1.22873
5.49938  1.57525
5.51838  1.62046
5.53738  0.941534
5.55639  0.969649
5.57539  1.07438
5.59439  1.50295
5.6134  1.28254
5.6324  0.918242
5.6514  0.765631
5.67041  0.704572
5.68941  0.392681
5.70841  -0.0236556
5.72741  -0.107643
5.74642  -0.134804
5.76542  -0.0845852
5.78442  0.47646
5.80343  0.301864
5.82243  0.48589
5.84143  0.180818
5.86044  0.135651
5.87944  0.0663588
5.89844  0.330652
5.91745  1.01657
5.93645  1.69023
5.95545  2.04288
5.97446  2.57697
5.99346  2.85703
6.01246  3.11072
6.03147  2.62431
6.05047  2.30451
6.06947  1.75276
6.08848  1.23096
6.10748  1.00092
6.12648  0.59468
6.14549  0.424563
6.16449  0.457015
6.18349  0.385548
6.2025  0.170033
6.2215  0.257439
6.2405  0.0682983
6.25951  0.0301256
6.27851  -0.195545
6.29751  -0.0332593
6.31652  0.0980787
6.33552  0.0545843
6.35452  0.10289
6.37353  0.350214
6.39253  0.371326
6.41153  0.0347324
6.43054  0.2125
6.44954  0.652644
6.46854  0.744549
6.48755  0.301091
6.50655  -0.0402015
6.52555  0.377222
6.54456  1.23585
6.56356  2.36156
6.58256  3.08065
6.60157  4.36446
6.62057  5.45917
6.63957  5.94671
6.65857  5.31989
6.67758  4.35176
6.69658  3.22674
6.71558  1.87454
6.73459  1.03693
6.75359  0.492025
6.77259  0.152912
6.7916  -0.0459561
6.8106  0.217413
6.8296  0.794874
6.84861  0.707347
6.86761  0.612593
6.88661  0.495187
6.90562  0.909058
6.92462  1.47735
6.94362  2.71623
6.96263  4.03864
6.98163  5.26148
7.00063  6.40812
7.01964  8.25312
7.03864  10.1483
7.05764  11.6318
7.07665  12.5926
7.09565  13.4426
7.11465  14.4806
7.13366  16.4921
7.15266  19.5458
7.17166  25.1141
7.19067  31.0791
7.20967  38.7752
7.22867  45.1647
7.24768  48.7228
7.26668  48.3412
7.28568  45.4659
7.30469  39.9721
7.32369  34.3036
7.34269  28.5009
7.3617  22.8004
7.3807  18.4179
7.3997  15.2521
7.41871  12.8618
7.43771  10.6437
7.45671  8.78438
7.47572  7.38861
7.49472  6.98324
7.51372  6.57424
7.53273  6.20049
7.55173  5.55262
7.57073  4.54965
7.58973  4.16099
7.60874  3.39559
7.62774  3.2551
7.64674  2.8425
7.66575  2.37403
7.68475  1.92678
7.70375  1.64353
7.72276  1.84051
7.74176  1.85048
7.76076  1.64556
7.77977  1.30184
7.79877  1.23063
7.81777  1.36571
7.83678  1.32863
7.85578  1.2195
7.87478  0.976228
7.89379  0.859699
7.91279  0.565596
7.93179  0.602499
7.9508  0.655415
7.9698  1.19514
7.9888  1.08399
8.00781  1.00758
8.02681  0.782551
8.04581  1.01119
8.06482  0.658184
8.08382  0.0970668
8.10282  -0.0450081
8.12183  0.121948
8.14083  0.669068
8.15983  0.56774
8.17884  0.669384
8.19784  0.461169
8.21684  -0.0458655
8.23585  -0.365721
8.25485  -0.067873
8.27385  0.161684
8.29286  0.0659509
8.31186  -0.114273
8.33086  -0.168678
8.34987  0.273377
8.36887  0.489607
8.38787  0.428054
8.40688  0.430599
8.42588  0.791101
8.44488  0.946126
8.46389  0.90049
8.48289  0.655079
8.50189  0.472476
8.52089  0.42872
8.5399  0.400501
8.5589  0.573034
8.5779  0.250073
8.59691  0.0829435
8.61591  0.134448
8.63491  0.24088
8.65392  0.222182
8.67292  0.0797199
8.69192  0.245392
8.71093  0.252503
8.72993  0.111935
8.74893  -0.142116
8.76794  -0.523234
8.78694  -0.532418
8.80594  -0.346493
8.82495  0.212374
8.84395  -0.201921
8.86295  -0.371532
8.88196  -0.244793
8.90096  -0.274073
8.91996  -0.340692
8.93897  -0.367098
8.95797  -0.174412
8.97697  -0.0999924
8.99598  0.370802
9.01498  0.497027
9.03398  0.434863
9.05299  -0.0531412
9.07199  0.442109
9.09099  0.791945
9.11  0.863656
9.129  0.771923
9.148  0.964039
9.16701  1.3201
9.18601  1.75415
9.20501  2.46158
9.22402  3.476
9.24302  4.72189
9.26202  5.48428
9.28103  6.30505
9.30003  8.00578
9.31903  10.5193
9.33804  13.169
9.35704  16.165
9.37604  20.4229
9.39505  25.5657
9.41405  32.8624
9.43305  42.1169
9.45206  54.676
9.47106  71.3624
9.49006  93.0888
9.50906  121.197
9.52807  155.168
9.54707  195.124
9.56607  235.024
9.58508  266.789
9.60408  286.941
9.62308  295.033
9.64209  291.956
9.66109  281.047
9.68009  265.052
9.6991  247.49
9.7181  229.363
9.7371  212.792
9.75611  196.688
9.77511  180.75
9.79411  165.024
9.81312  151.541
9.83212  139.15
9.85112  127.959
9.87013  117.845
9.88913  109.599
9.90813  101.827
9.92714  96.6238
9.94614  91.1076
9.96514  87.3241
9.98415  84.0625
10.0031  80.6401
10.0222  77.2017
10.0412  73.8223
10.0602  69.8777
10.0792  65.6952
10.0982  60.8514
10.1172  56.1231
10.1362  51.2405
10.1552  46.2701
10.1742  41.4842
10.1932  37.3675
10.2122  33.2257
10.2312  28.9691
10.2502  25.3365
10.2692  22.0361
10.2882  19.1661
10.3072  16.4152
10.3262  13.9817
10.3452  11.2837
10.3642  9.34857
10.3832  7.87558
10.4022  6.52778
10.4212  5.16652
10.4402  3.89867
10.4592  2.90997
10.4782  1.82241
10.4972  0.632706
10.5162  -0.334016
10.5352  -0.720429
10.5542  -0.639231
10.5732  -0.622052
10.5923  -0.981049
10.6113  -1.05914
10.6303  -0.7598
10.6493  -0.257594
10.6683  0.200973
10.6873  1.18787
10.7063  2.55716
10.7253  3.4895
10.7443  4.24886
10.7633  4.77424
10.7823  5.26263
10.8013  5.23135
10.8203  5.06305
10.8393  4.88816
10.8583  4.51464
10.8773  4.39055
10.8963  3.88324
10.9153  3.65138
10.9343  3.14324
10.9533  2.60809
10.9723  1.97393
10.9913  1.71402
11.0103  1.4977
11.0293  0.999138
11.0483  0.30428
11.0673  0.168076
11.0863  0.71965
11.1053  1.24684
11.1243  1.5122
11.1433  1.63793
11.1623  1.9449
11.1814  2.09976
11.2004  2.56065
11.2194  2.88204
11.2384  2.74718
11.2574  2.48781
11.2764  2.27499
11.2954  2.4344
11.3144  2.55398
11.3334  2.17089
11.3524  1.64006
11.3714  1.33657
11.3904  1.62036
11.4094  1.89155
11.4284  2.19532
11.4474  2.43205
11.4664  2.40642
11.4854  2.32092
11.5044  2.38852
11.5234  2.14931
11.5424  2.16091
11.5614  2.16394
11.5804  2.45399
11.5994  2.05215
11.6184  1.52252
11.6374  1.2706
11.6564  1.32148
11.6754  1.3917
11.6944  1.09049
11.7134  0.658182
11.7324  0.382798
11.7515  0.319878
11.7705  0.323403
11.7895  0.147968
11.8085  -0.26555
11.8275  -0.465308
11.8465  -0.504735
11.8655  -0.523917
11.8845  -0.182721
11.9035  -0.26754
11.9225  -0.343599
11.9415  -0.484267
11.9605  -0.446564
11.9795  -0.18517
11.9985  -0.0257494
12.0175  -0.190117
12.0365  0.129591
12.0555  0.606222
12.0745  1.3984
12.0935  2.1934
12.1125  2.99177
12.1315  3.8882
12.1505  4.56434
12.1695  5.97306
12.1885  7.39213
12.2075  9.42126
12.2265  11.5766
12.2455  13.7603
12.2645  16.8286
12.2835  20.2539
12.3025  24.9057
12.3215  30.5927
12.3406  37.5724
12.3596  46.746
12.3786  58.3907
12.3976  73.7393
12.4166  93.9713
12.4356  118.657
12.4546  150.944
12.4736  189.15
12.4926  233.78
12.5116  286.202
12.5306  340.144
12.5496  394.393
12.5686  440.892
12.5876  476.095
12.6066  493.227
12.6256  496.675
12.6446  487.421
12.6636  464.516
12.6826  433.43
12.7016  393.451
12.7206  347.645
12.7396  299.578
12.7586  252.269
12.7776  208.365
12.7966  169.163
12.8156  133.76
12.8346  106.15
12.8536  84.211
12.8726  68.2166
12.8916  56.8184
12.9106  47.5779
12.9297  41.3124
12.9487  36.1782
12.9677  31.9939
12.9867  28.8221
13.0057  26.0361
13.0247  23.8291
13.0437  21.7228
13.0627  19.8586
13.0817  18.4215
13.1007  17.0698
13.1197  15.6432
13.1387  14.5703
13.1577  13.7436
13.1767  13.0829
13.1957  11.9211
13.2147  10.4165
13.2337  9.18753
13.2527  8.41867
13.2717  7.68562
13.2907  7.1778
13.3097  6.44074
13.3287  5.79369
13.3477  5.06398
13.3667  4.31813
13.3857  3.54563
13.4047  2.79225
13.4237  2.48125
13.4427  2.54411
13.4617  2.53409
13.4807  2.81681
13.4998  2.78297
13.5188  3.13691
13.5378  2.86595
13.5568  2.68945
13.5758  2.65503
13.5948  2.84028
13.6138  3.15897
13.6328  3.09005
13.6518  3.22787
13.6708  2.90596
13.6898  2.77174
13.7088  2.51522
13.7278  2.69851
13.7468  3.06104
13.7658  3.20876
13.7848  3.2911
13.8038  3.11693
13.8228  2.88799
13.8418  2.39547
13.8608  1.75913
13.8798  1.48687
13.8988  1.08021
13.9178  0.706074
13.9368  0.579418
13.9558  0.612175
13.9748  0.456546
13.9938  0.200487
14.0128  0.0402141
14.0318  -0.402203
14.0508  -0.253322
14.0698  -0.246235
14.0889  -0.0875278
14.1079  -0.00582995
14.1269  -0.316025
14.1459  -0.422923
14.1649  -0.569327
14.1839  -0.267774
14.2029  -0.291002
14.2219  0.109503
14.2409  0.619718
14.2599  0.854644
14.2789  1.00106
14.2979  1.35267
14.3169  2.0277
14.3359  3.0011
14.3549  3.44702
14.3739  3.43579
14.3929  3.71466
14.4119  4.80857
14.4309  5.70692
14.4499  6.16383
14.4689  6.25024
14.4879  6.45656
14.5069  6.90435
14.5259  6.87524
14.5449  6.91053
14.5639  6.89022
14.5829  6.67801
14.6019  6.46277
14.6209  6.3643
14.6399  6.31028
14.6589  6.336
14.678  5.93406
14.697  5.50909
14.716  5.01096
14.735  4.33518
14.754  3.62092
14.773  3.00479
14.792  2.67822
14.811  1.9826
14.83  1.49148
14.849  0.998554
14.868  0.851566
14.887  0.785826
14.906  0.875959
14.925  0.895759
14.944  0.978522
14.963  0.466465
14.982  -0.0832388
15.001  -0.400495
15.02  -0.0393704
15.039  0.581443
15.058  0.502772
15.077  0.237541
15.096  0.0288393
15.115  0.0140844
15.134  0.37422
15.153  0.529245
15.172  0.526816
15.191  0.549108
15.21  0.399992
15.229  0.0392892
15.2481  -0.277669
15.2671  -0.282859
15.2861  0.181236
15.3051  0.494833
15.3241  0.238105
15.3431  0.200318
15.3621  0.328734
15.3811  0.555896
15.4001  0.517265
15.4191  0.198228
15.4381  0.171613
15.4571  0.247027
15.4761  0.552313
15.4951  0.61951
15.5141  0.825747
15.5331  0.906348
15.5521  0.81382
15.5711  0.659022
15.5901  0.681419
15.6091  0.566938
15.6281  0.590421
15.6471  0.601087
15.6661  0.602965
15.6851  0.754413
15.7041  0.844275
15.7231  0.818219
15.7421  0.503709
15.7611  0.474596
15.7801  0.27989
15.7991  0.214312
15.8181  0.418849
15.8372  0.367547
15.8562  0.381858
15.8752  0.18775
15.8942  0.380484
15.9132  0.435879
15.9322  0.423484
15.9512  0.1121
15.9702  0.296064
15.9892  0.291147
16.0082  0.390045
16.0272  0.221613
16.0462  0.0452843
16.0652  -0.1786
16.0842  -0.198341
16.1032  -0.104422
16.1222  0.0469856
16.1412  0.422194
16.1602  0.658612
16.1792  0.954637
16.1982  0.984909
16.2172  0.91203
16.2362  0.998811
16.2552  1.52818
16.2742  1.972
16.2932  2.3507
16.3122  2.61325
16.3312  3.08061
16.3502  3.97863
16.3692  4.64654
16.3882  5.38063
16.4073  6.25472
16.4263  7.64807
16.4453  9.07054
16.4643  10.5943
16.4833  12.2804
16.5023  13.9944
16.5213  16.3755
16.5403  19.1916
16.5593  21.5729
16.5783  24.2997
16.5973  26.7183
16.6163  29.0688
16.6353  31.4781
16.6543  33.323
16.6733  34.8799
16.6923  36.0498
16.7113  36.4193
16.7303  36.8485
16.7493  36.6519
16.7683  36.4521
16.7873  35.8834
16.8063  34.8061
16.8253  34.0403
16.8443  32.8369
16.8633  31.6403
16.8823  30.447
16.9013  29.4521
16.9203  28.2872
16.9393  27.0754
16.9583  26.0394
16.9773  25.3411
16.9964  24.3771
17.0154  23.0379
17.0344  21.9289
17.0534  20.8136
17.0724  19.9284
17.0914  18.9077
17.1104  18.0537
17.1294  17.0806
17.1484  16.4201
17.1674  15.9337
17.1864  15.1729
17.2054  14.1807
17.2244  13.3409
17.2434  12.566
17.2624  12.1735
17.2814  12.2364
17.3004  11.7566
17.3194  10.6424
17.3384  9.03958
17.3574  7.71352
17.3764  6.87547
17.3954  6.56295
17.4144  6.19567
17.4334  5.4909
17.4524  4.73021
17.4714  4.19647
17.4904  3.60682
17.5094  3.11811
17.5284  2.89302
17.5474  2.76294
17.5664  2.70323
17.5855  2.31338
17.6045  2.20117
17.6235  2.12793
17.6425  2.14072
17.6615  2.28602
17.6805  2.48427
17.6995  2.63407
17.7185  2.50693
17.7375  2.36803
17.7565  2.39931
17.7755  2.59844
17.7945  2.47203
17.8135  2.3056
17.8325  2.58373
17.8515  2.47609
17.8705  2.41499
17.8895  2.30271
17.9085  2.40448
17.9275  2.3271
17.9465  2.43128
17.9655  2.46745
17.9845  2.87334
18.0035  2.91962
18.0225  2.95281
18.0415  2.67532
18.0605  2.56746
18.0795  2.70623
18.0985  3.29586
18.1175  3.70653
18.1365  3.80842
18.1556  3.73892
18.1746  3.93079
18.1936  4.84638
18.2126  5.55976
18.2316  6.14971
18.2506  6.35028
18.2696  7.01062
18.2886  8.0178
18.3076  8.72574
18.3266  9.58974
18.3456  10.7485
18.3646  12.2517
18.3836  13.6666
18.4026  15.5646
18.4216  17.8548
18.4406  20.0819
18.4596  22.2503
18.4786  24.2778
18.4976  26.4973
18.5166  29.1519
18.5356  31.614
18.5546  34.1034
18.5736  35.9375
18.5926  37.4321
18.6116  38.7588
18.6306  39.8425
18.6496  40.439
18.6686  40.5155
18.6876  40.2479
18.7066  39.3817
18.7256  38.2924
18.7447  36.7839
18.7637  35.0523
18.7827  32.879
18.8017  30.1965
18.8207  27.1783
18.8397  24.4918
18.8587  21.5615
18.8777  18.6027
18.8967  16.0942
18.9157  14.0434
18.9347  11.9541
18.9537  9.7667
18.9727  7.81293
18.9917  6.36821
19.0107  5.09555
19.0297  3.87285
19.0487  3.16896
19.0677  2.44838
19.0867  2.06941
19.1057  1.86709
19.1247  1.57092
19.1437  1.4953
19.1627  1.43991
19.1817  1.25078
19.2007  0.806141
19.2197  0.547887
19.2387  0.490253
19.2577  0.384769
19.2767  0.328229
19.2957  0.0679857
19.3148  0.108137
19.3338  0.0581178
19.3528  -0.112026
19.3718  -0.281567
19.3908  -0.255217
19.4098  -0.187935
19.4288  -0.0528948
19.4478  -0.0752527
19.4668  -0.10233
19.4858  -0.100317
19.5048  -0.148624
19.5238  -0.103913
19.5428  0.13056
19.5618  0.592398
19.5808  0.587677
19.5998  0.64244
19.6188  0.482653
19.6378  0.397784
19.6568  0.133141
19.6758  0.135517
19.6948  0.206368
19.7138  0.363722
19.7328  0.283983
19.7518  0.0566299
19.7708  -0.123375
19.7898  0.0782076
19.8088  0.254075
19.8278  0.158972
19.8468  0.0372907
19.8658  0.0214975
19.8848  0.0546341
19.9039  -0.00257649
19.9229  -0.0264021
19.9419  0.205655
19.9609  0.548708
19.9799  0.705507
19.9989  0.669944
20.0179  0.542388
20.0369  0.269094
20.0559  0.0555317
20.0749  0.140437
20.0939  0.246788
20.1129  0.354317
20.1319  0.234035
20.1509  -0.0666833
20.1699  -0.242648
20.1889  -0.0813758
20.2079  0.148193
20.2269  0.252741
20.2459  0.0558442
20.2649  -0.131794
20.2839  -0.196358
20.3029  0.177585
20.3219  0.483265
20.3409  0.507857
20.3599  0.533301
20.3789  0.423395
20.3979  0.320536
20.4169  0.249981
20.4359  0.268615
20.4549  0.180059
20.4739  0.0608649
20.493  0.18658
20.512  0.387713
20.531  0.37372
20.55  0.368581
20.569  0.272213
20.588  0.382484
20.607  0.449938
20.626  0.562571
20.645  0.640712
20.664  0.363053
20.683  0.252313
20.702  0.555285
20.721  0.884021
20.74  1.0793
20.759  1.17093
20.778  1.33503
20.797  1.4324
20.816  1.47007
20.835  1.39693
20.854  1.25364
20.873  1.18892
20.892  1.11984
20.911  1.17816
20.93  1.26259
20.949  1.46712
20.968  1.38267
20.987  1.29111
21.006  1.42933
21.025  1.44656
21.044  1.25422
21.0631  1.06815
21.0821  1.15299
21.1011  1.13629
21.1201  0.861595
21.1391  0.727799
21.1581  0.83403
21.1771  0.868138
21.1961  0.734174
21.2151  0.782082
21.2341  0.965605
21.2531  0.90611
21.2721  0.807357
21.2911  0.725945
21.3101  0.516292
21.3291  0.241641
21.3481  0.0971323
21.3671  0.135518
21.3861  -0.0386177
21.4051  0.0672914
21.4241  0.188661
21.4431  0.329325
21.4621  0.186577
21.4811  0.0258758
21.5001  -0.0797286
21.5191  -0.0309086
21.5381  0.179374
21.5571  0.182923
21.5761  -0.0462701
21.5951  -0.00331028
21.6141  -0.00876268
21.6331  -0.0150531
21.6522  -0.215956
21.6712  -0.0112685
21.6902  0.175645
21.7092  0.325286
21.7282  0.400231
21.7472  0.417891
21.7662  0.385908
21.7852  0.142294
21.8042  -0.0626725
21.8232  -0.0164224
21.8422  -0.00156394
21.8612  -0.209574
21.8802  -0.291134
21.8992  -0.0739178
21.9182  0.170869
21.9372  0.175309
21.9562  0.186718
21.9752  0.0737173
21.9942  -0.144575
22.0132  -0.234866
22.0322  0.146763