File: data/processed/Run2_XRD/22_ReMoB2_875psi_noRuby_S_P1_C1_D1w_139.dat
2.93393  0.512281
2.95294  -0.00245454
2.97194  -0.128252
2.99094  0.0815243
3.00995  0.37458
3.02895  0.971036
3.04795  1.32862
3.06696  1.01266
3.08596  0.800999
3.10496  0.922791
3.12397  1.49576
3.14297  1.41375
3.16197  0.628341
3.18098  0.0257167
3.19998  0.264079
3.21898  0.67381
3.23799  1.00366
3.25699  1.42178
3.27599  1.64249
3.295  1.41037
3.314  1.13879
3.333  1.35068
3.35201  1.72829
3.37101  2.1601
3.39001  1.92576
3.40902  2.14171
3.42802  1.79384
3.44702  1.7842
3.46603  2.16075
3.48503  2.5896
3.50403  2.90208
3.52304  3.5575
3.54204  4.98151
3.56104  6.77094
3.58005  8.88718
3.59905  11.807
3.61805  14.2832
3.63706  15.221
3.65606  13.7109
3.67506  11.2899
3.69407  8.30834
3.71307  5.39647
3.73207  3.83036
3.75108  2.9001
3.77008  2.25962
3.78908  1.91409
3.80808  1.20586
3.82709  0.952746
3.84609  0.874416
3.86509  1.2946
3.8841  0.923367
3.9031  0.952855
3.9221  0.916138
3.94111  0.785706
3.96011  0.58676
3.97911  0.318123
3.99812  0.17505
4.01712  0.248783
4.03612  0.0685241
4.05513  0.473554
4.07413  0.668269
4.09313  1.10987
4.11214  1.1535
4.13114  0.867611
4.15014  0.68389
4.16915  0.664445
4.18815  0.56525
4.20715  0.721539
4.22616  0.612132
4.24516  1.03633
4.26416  0.681064
4.28317  0.794797
4.30217  -0.0110834
4.32117  -0.154512
4.34018  -0.0758892
4.35918  0.610545
4.37818  0.793462
4.39719  0.825729
4.41619  1.08356
4.43519  1.18027
4.4542  0.753825
4.4732  0.324838
4.4922  0.600292
4.51121  0.842104
4.53021  0.979362
4.54921  1.41644
4.56822  1.79146
4.58722  1.76363
4.60622  0.810425
4.62523  0.0739358
4.64423  0.374806
4.66323  0.905463
4.68224  1.98413
4.70124  2.40507
4.72024  2.25439
4.73924  2.03364
4.75825  0.958935
4.77725  0.405687
4.79625  -0.271122
4.81526  0.246911
4.83426  0.795173
4.85326  1.26581
4.87227  1.57719
4.89127  1.59872
4.91027  1.678
4.92928  1.79343
4.94828  1.77056
4.96728  1.77268
4.98629  1.79177
5.00529  1.82902
5.02429  1.59708
5.0433  0.987349
5.0623  0.0375181
5.0813  -0.305987
5.10031  0.154515
5.11931  0.64886
5.13831  1.35394
5.15732  1.36692
5.17632  1.2881
5.19532  0.466269
5.21433  0.6621
5.23333  0.67082
5.25233  0.850051
5.27134  1.0563
5.29034  1.07999
5.30934  0.969647
5.32835  0.791956
5.34735  0.840901
5.36635  1.51698
5.38536  1.95433
5.40436  1.71823
5.42336  1.27305
5.44237  1.23809
5.46137  1.19926
5.48037  0.997691
5.49938  0.662164
5.51838  0.468188
5.53738  0.581985
5.55639  0.549521
5.57539  0.835121
5.59439  1.3522
5.6134  1.34664
5.6324  1.09384
5.6514  0.650192
5.67041  0.96396
5.68941  0.765474
5.70841  0.456683
5.72741  0.122767
5.74642  0.358582
5.76542  0.180866
5.78442  -0.0186824
5.80343  0.195225
5.82243  0.302642
5.84143  0.147703
5.86044  -0.344845
5.87944  -0.17463
5.89844  0.589081
5.91745  1.20334
5.93645  1.58644
5.95545  2.09079
5.97446  2.68566
5.99346  2.75959
6.01246  2.33615
6.03147  1.63372
6.05047  1.10511
6.06947  0.982135
6.08848  0.864728
6.10748  1.12556
6.12648  0.86855
6.14549  0.801814
6.16449  0.589903
6.18349  0.455463
6.2025  0.463963
6.2215  0.730708
6.2405  0.898954
6.25951  0.92413
6.27851  0.871564
6.29751  0.83562
6.31652  0.408339
6.33552  0.21373
6.35452  0.02088
6.37353  -0.0922822
6.39253  0.0896512
6.41153  0.291273
6.43054  0.25983
6.44954  0.352475
6.46854  0.198887
6.48755  -0.0964612
6.50655  -0.0609617
6.52555  -0.255751
6.54456  0.330993
6.56356  0.811112
6.58256  1.9823
6.60157  3.05886
6.62057  4.44814
6.63957  5.63013
6.65857  5.56336
6.67758  4.49768
6.69658  3.35114
6.71558  2.49723
6.73459  1.97611
6.75359  1.17737
6.77259  0.634201
6.7916  0.503008
6.8106  0.459288
6.8296  0.554072
6.84861  0.290096
6.86761  0.538199
6.88661  0.846358
6.90562  1.32971
6.92462  2.108
6.94362  2.93717
6.96263  3.89395
6.98163  5.52384
7.00063  7.39131
7.01964  9.38367
7.03864  11.1217
7.05764  12.4249
7.07665  13.3942
7.09565  14.8827
7.11465  16.1795
7.13366  18.5768
7.15266  21.6837
7.17166  28.1188
7.19067  35.7933
7.20967  45.0629
7.22867  53.7164
7.24768  61.0592
7.26668  65.0681
7.28568  64.7212
7.30469  59.781
7.32369  52.9708
7.34269  45.5728
7.3617  38.789
7.3807  32.9555
7.3997  27.2097
7.41871  22.757
7.43771  19.4803
7.45671  16.371
7.47572  14.2705
7.49472  12.6218
7.51372  11.3161
7.53273  9.83312
7.55173  8.54071
7.57073  7.70732
7.58973  7.12477
7.60874  6.43271
7.62774  5.92188
7.64674  5.81007
7.66575  5.44905
7.68475  5.05531
7.70375  4.47116
7.72276  4.34574
7.74176  4.62077
7.76076  4.62716
7.77977  4.43752
7.79877  3.98525
7.81777  3.41066
7.83678  2.68053
7.85578  2.74258
7.87478  2.73308
7.89379  2.34694
7.91279  1.91703
7.93179  1.61713
7.9508  1.45146
7.9698  1.117
7.9888  1.2895
8.00781  1.18561
8.02681  1.25038
8.04581  0.77598
8.06482  0.488354
8.08382  0.79369
8.10282  1.02767
8.12183  1.0014
8.14083  0.672688
8.15983  0.475536
8.17884  0.421063
8.19784  0.230258
8.21684  0.0825263
8.23585  -0.0795491
8.25485  -0.195314
8.27385  0.149171
8.29286  0.187245
8.31186  0.285963
8.33086  0.574865
8.34987  0.57551
8.36887  0.278198
8.38787  0.198597
8.40688  0.433481
8.42588  0.881804
8.44488  0.983603
8.46389  0.849973
8.48289  0.48034
8.50189  0.248174
8.52089  0.446312
8.5399  0.760859
8.5589  0.923248
8.5779  0.452985
8.59691  -0.0178996
8.61591  -0.390467
8.63491  -0.278238
8.65392  -0.410486
8.67292  -0.434754
8.69192  -0.295109
8.71093  -0.263572
8.72993  -0.167537
8.74893  -0.138463
8.76794  0.255277
8.78694  0.0189142
8.80594  0.0272662
8.82495  -0.144425
8.84395  -0.136402
8.86295  -0.0666865
8.88196  0.14128
8.90096  -0.0518007
8.91996  -0.0344505
8.93897  -0.152478
8.95797  -0.140099
8.97697  -0.478257
8.99598  -0.421326
9.01498  -0.0983532
9.03398  0.109872
9.05299  0.291058
9.07199  0.330547
9.09099  0.64522
9.11  0.552388
9.129  0.720772
9.148  0.923138
9.16701  1.3998
9.18601  1.7181
9.20501  2.20561
9.22402  2.27993
9.24302  3.09355
9.26202  3.93377
9.28103  5.3749
9.30003  6.43805
9.31903  8.21838
9.33804  10.56
9.35704  13.2517
9.37604  15.9258
9.39505  19.3456
9.41405  24.4207
9.43305  30.471
9.45206  38.5246
9.47106  49.6308
9.49006  63.996
9.50906  84.431
9.52807  108.997
9.54707  141.569
9.56607  175.897
9.58508  210.055
9.60408  238.088
9.62308  254.282
9.64209  263.477
9.66109  263.003
9.68009  256.976
9.6991  246.496
9.7181  235.256
9.7371  222.346
9.75611  211.122
9.77511  197.825
9.79411  187.372
9.81312  176.136
9.83212  167.287
9.85112  159.762
9.87013  154.538
9.88913  151.359
9.90813  148.962
9.92714  148.932
9.94614  151.123
9.96514  154.175
9.98415  156.029
10.0031  156.702
10.0222  154.211
10.0412  151.031
10.0602  144.278
10.0792  136.705
10.0982  126.489
10.1172  115.234
10.1362  103.844
10.1552  92.5103
10.1742  81.3961
10.1932  71.0845
10.2122  61.4864
10.2312  52.553
10.2502  43.9368
10.2692  36.7521
10.2882  30.3534
10.3072  25.1222
10.3262  20.3859
10.3452  15.9608
10.3642  12.8422
10.3832  10.3365
10.4022  8.23742
10.4212  6.40657
10.4402  4.42396
10.4592  2.94219
10.4782  1.69495
10.4972  0.999577
10.5162  0.376803
10.5352  -0.261276
10.5542  -0.540109
10.5732  -0.760124
10.5923  -0.952011
10.6113  -0.92826
10.6303  -1.01344
10.6493  -0.884542
10.6683  -0.923984
10.6873  -0.84241
10.7063  -0.368056
10.7253  -0.167249
10.7443  0.25353
10.7633  0.571573
10.7823  0.892568
10.8013  1.3545
10.8203  1.8646
10.8393  2.26789
10.8583  2.64511
10.8773  3.40057
10.8963  3.62832
10.9153  3.61819
10.9343  3.61481
10.9533  3.64825
10.9723  3.89331
10.9913  3.43283
11.0103  3.32098
11.0293  2.78326
11.0483  2.04209
11.0673  1.91552
11.0863  1.79941
11.1053  1.92198
11.1243  2.00537
11.1433  2.57817
11.1623  2.75642
11.1814  2.6958
11.2004  2.29894
11.2194  2.09348
11.2384  2.26089
11.2574  2.71922
11.2764  3.11187
11.2954  3.10215
11.3144  3.21695
11.3334  3.54684
11.3524  4.25666
11.3714  4.40879
11.3904  4.55486
11.4094  5.00461
11.4284  5.63275
11.4474  6.28201
11.4664  6.45553
11.4854  6.94205
11.5044  6.8616
11.5234  7.00519
11.5424  6.65454
11.5614  6.40241
11.5804  6.14037
11.5994  5.81663
11.6184  5.47658
11.6374  5.22316
11.6564  5.0264
11.6754  4.72863
11.6944  4.05471
11.7134  3.39066
11.7324  2.41632
11.7515  2.03529
11.7705  1.49594
11.7895  0.728131
11.8085  0.252582
11.8275  0.136888
11.8465  -0.156382
11.8655  -0.0772595
11.8845  -0.274679
11.9035  -0.0707795
11.9225  -0.287576
11.9415  -0.519591
11.9605  -0.773298
11.9795  -0.932461
11.9985  -0.800698
12.0175  -0.740192
12.0365  -0.540277
12.0555  -0.374018
12.0745  0.208458
12.0935  0.851281
12.1125  1.56882
12.1315  2.14689
12.1505  2.87585
12.1695  3.96667
12.1885  5.42225
12.2075  7.04047
12.2265  8.71413
12.2455  10.4817
12.2645  12.6061
12.2835  15.3097
12.3025  19.2918
12.3215  24.2475
12.3406  30.1743
12.3596  37.5859
12.3786  47.7554
12.3976  60.8337
12.4166  78.8691
12.4356  99.4487
12.4546  126.712
12.4736  159.836
12.4926  197.129
12.5116  241.55
12.5306  285.883
12.5496  332.076
12.5686  373.25
12.5876  404.33
12.6066  423.466
12.6256  428.271
12.6446  421.316
12.6636  402.559
12.6826  376.968
12.7016  345.711
12.7206  310.342
12.7396  273.35
12.7586  236.144
12.7776  200.965
12.7966  169.337
12.8156  141.031
12.8346  116.822
12.8536  96.9813
12.8726  80.6492
12.8916  68.2647
12.9106  57.2318
12.9297  49.3586
12.9487  43.1644
12.9677  38.0889
12.9867  34.3718
13.0057  30.8374
13.0247  28.5487
13.0437  26.2965
13.0627  24.5134
13.0817  22.8949
13.1007  21.5984
13.1197  20.0302
13.1387  18.8879
13.1577  17.7279
13.1767  16.8642
13.1957  15.6611
13.2147  14.1355
13.2337  12.6468
13.2527  11.5048
13.2717  11.0717
13.2907  10.4738
13.3097  10.0962
13.3287  9.33904
13.3477  8.69902
13.3667  7.80426
13.3857  7.41619
13.4047  6.96076
13.4237  6.83182
13.4427  6.6762
13.4617  6.49788
13.4807  6.68953
13.4998  6.39945
13.5188  6.62483
13.5378  6.56577
13.5568  6.55239
13.5758  6.51879
13.5948  6.71471
13.6138  6.81729
13.6328  6.93373
13.6518  6.53168
13.6708  6.33329
13.6898  6.37196
13.7088  6.53358
13.7278  6.55157
13.7468  6.14087
13.7658  5.89387
13.7848  5.60886
13.8038  4.7397
13.8228  4.35967
13.8418  4.25995
13.8608  4.16238
13.8798  3.78268
13.8988  3.33394
13.9178  2.7752
13.9368  2.4075
13.9558  1.94401
13.9748  1.67191
13.9938  1.1682
14.0128  0.896704
14.0318  0.679881
14.0508  0.438674
14.0698  0.152638
14.0889  -0.271817
14.1079  -0.394304
14.1269  -0.571182
14.1459  -0.767984
14.1649  -0.962165
14.1839  -0.566811
14.2029  -0.213455
14.2219  -0.109929
14.2409  -0.466474
14.2599  -0.574069
14.2789  -0.0848935
14.2979  0.618002
14.3169  1.12759
14.3359  1.86241
14.3549  2.38545
14.3739  2.9664
14.3929  3.51173
14.4119  4.28715
14.4309  5.16077
14.4499  5.79903
14.4689  6.82347
14.4879  7.79642
14.5069  8.65052
14.5259  9.39837
14.5449  10.3511
14.5639  11.5936
14.5829  12.2946
14.6019  12.6729
14.6209  12.4956
14.6399  11.941
14.6589  10.7234
14.678  9.36462
14.697  7.42285
14.716  5.99867
14.735  4.88889
14.754  4.29113
14.773  3.50157
14.792  2.62174
14.811  2.22147
14.83  2.19733
14.849  1.91762
14.868  1.80373
14.887  1.49423
14.906  1.42136
14.925  1.06077
14.944  0.781002
14.963  0.630204
14.982  0.466412
15.001  0.0777109
15.02  -0.388271
15.039  0.0102965
15.058  0.481176
15.077  0.525602
15.096  0.259898
15.115  -0.191004
15.134  -0.457317
15.153  -0.268383
15.172  0.0370824
15.191  -0.0650151
15.21  -0.0845282
15.229  0.0146576
15.2481  0.667548
15.2671  2.44066
15.2861  4.07246
15.3051  3.5047
15.3241  2.87075
15.3431  1.66825
15.3621  1.50542
15.3811  1.02751
15.4001  -0.0539146
15.4191  0.285978
15.4381  0.464096
15.4571  0.777368
15.4761  0.882857
15.4951  0.894535
15.5141  0.932019
15.5331  0.731061
15.5521  0.522286
15.5711  0.34702
15.5901  0.433265
15.6091  0.576267
15.6281  0.648972
15.6471  1.06543
15.6661  1.24549
15.6851  1.11074
15.7041  1.23617
15.7231  1.27223
15.7421  1.05067
15.7611  0.870602
15.7801  0.671936
15.7991  0.61705
15.8181  0.548905
15.8372  0.298827
15.8562  0.20827
15.8752  0.325535
15.8942  0.457402
15.9132  0.39555
15.9322  -0.0100923
15.9512  0.064629
15.9702  0.104758
15.9892  0.162105
16.0082  0.142344
16.0272  0.188581
16.0462  0.162512
16.0652  -0.0662435
16.0842  -0.00698447
16.1032  0.0163121
16.1222  -0.0109103
16.1412  0.0615434
16.1602  0.371024
16.1792  0.434981
16.1982  0.595059
16.2172  0.707021
16.2362  0.978749
16.2552  0.943576
16.2742  0.949007
16.2932  0.954957
16.3122  1.37961
16.3312  1.99049
16.3502  2.46771
16.3692  2.91486
16.3882  3.2286
16.4073  3.80277
16.4263  4.38633
16.4453  4.70583
16.4643  5.23204
16.4833  5.96995
16.5023  6.86282
16.5213  7.87795
16.5403  8.96167
16.5593  9.93336
16.5783  10.7873
16.5973  11.7306
16.6163  12.8824
16.6353  14.1775
16.6543  15.206
16.6733  15.8898
16.6923  16.3962
16.7113  17.1662
16.7303  18.1136
16.7493  18.7637
16.7683  19.204
16.7873  19.2135
16.8063  19.1396
16.8253  19.1287
16.8443  19.289
16.8633  19.3681
16.8823  19.486
16.9013  19.313
16.9203  19.1618
16.9393  18.9497
16.9583  18.9093
16.9773  18.8025
16.9964  18.3869
17.0154  17.7957
17.0344  17.7296
17.0534  17.5716
17.0724  17.5097
17.0914  16.7301
17.1104  16.1258
17.1294  15.4106
17.1484  15.3239
17.1674  15.3262
17.1864  15.6364
17.2054  16.041
17.2244  16.242
17.2434  16.1796
17.2624  15.8027
17.2814  15.3846
17.3004  14.8772
17.3194  14.3152
17.3384  13.591
17.3574  13.0015
17.3764  11.771
17.3954  10.5418
17.4144  9.50211
17.4334  8.4476
17.4524  7.4065
17.4714  6.58489
17.4904  5.93213
17.5094  5.4241
17.5284  4.68339
17.5474  4.10305
17.5664  3.5647
17.5855  3.34503
17.6045  3.1102
17.6235  2.91787
17.6425  2.60768
17.6615  2.32813
17.6805  2.39784
17.6995  2.70018
17.7185  2.76171
17.7375  2.86643
17.7565  2.47653
17.7755  2.49312
17.7945  2.44717
17.8135  2.38852
17.8325  2.49417
17.8515  2.60567
17.8705  2.70536
17.8895  2.59626
17.9085  2.6281
17.9275  2.7226
17.9465  2.9682
17.9655  3.06086
17.9845  3.03254
18.0035  3.33135
18.0225  3.38812
18.0415  3.61804
18.0605  3.59827
18.0795  3.55074
18.0985  3.5899
18.1175  3.69826
18.1365  4.09696
18.1556  4.32099
18.1746  4.82947
18.1936  5.1155
18.2126  4.97417
18.2316  5.12167
18.2506  5.72719
18.2696  6.68057
18.2886  7.21321
18.3076  7.77084
18.3266  8.56964
18.3456  9.69058
18.3646  10.7565
18.3836  11.8832
18.4026  13.1298
18.4216  14.8669
18.4406  16.6901
18.4596  18.4644
18.4786  20.7019
18.4976  22.7795
18.5166  25.0431
18.5356  27.2261
18.5546  29.5875
18.5736  31.5206
18.5926  33.0772
18.6116  34.172
18.6306  35.2594
18.6496  35.997
18.6686  36.2872
18.6876  36.3971
18.7066  36.3794
18.7256  36.1299
18.7447  35.6968
18.7637  35.2835
18.7827  34.662
18.8017  33.8891
18.8207  32.5496
18.8397  30.7981
18.8587  28.0218
18.8777  25.6699
18.8967  22.9135
18.9157  20.4006
18.9347  17.3151
18.9537  14.5323
18.9727  11.8991
18.9917  9.9203
19.0107  8.08721
19.0297  6.63838
19.0487  5.38845
19.0677  4.32217
19.0867  3.54714
19.1057  2.99614
19.1247  2.62127
19.1437  2.45162
19.1627  2.11715
19.1817  1.62382
19.2007  1.15521
19.2197  0.901448
19.2387  0.823016
19.2577  0.804328
19.2767  0.637883
19.2957  0.347116
19.3148  0.0589922
19.3338  -0.17461
19.3528  -0.140073
19.3718  -0.0118654
19.3908  0.211743
19.4098  0.249416
19.4288  0.288827
19.4478  0.217815
19.4668  0.139594
19.4858  -0.0878628
19.5048  -0.211383
19.5238  -0.370749
19.5428  -0.2382
19.5618  0.0522304
19.5808  0.269083
19.5998  0.223516
19.6188  0.294408
19.6378  0.358215
19.6568  0.360705
19.6758  0.328325
19.6948  0.0939816
19.7138  0.0639274
19.7328  0.153273
19.7518  0.291553
19.7708  0.240425
19.7898  0.0450264
19.8088  0.118954
19.8278  -0.106341
19.8468  -0.0398957
19.8658  0.0892181
19.8848  0.140639
19.9039  0.100279
19.9229  0.190174
19.9419  0.460689
19.9609  0.635071
19.9799  0.738716
19.9989  0.904575
20.0179  0.907352
20.0369  1.0175
20.0559  1.07239
20.0749  0.988182
20.0939  0.802592
20.1129  0.818075
20.1319  0.674633
20.1509  0.591352
20.1699  0.522938
20.1889  0.678331
20.2079  0.52747
20.2269  0.333946
20.2459  0.104164
20.2649  0.172729
20.2839  0.0663819
20.3029  0.028691
20.3219  0.1118
20.3409  0.20597
20.3599  -0.0608862
20.3789  -0.0734821
20.3979  0.130488
20.4169  0.311425
20.4359  0.302651
20.4549  0.249967
20.4739  0.0777261
20.493  -0.12074
20.512  -0.0676131
20.531  -0.0132999
20.55  0.234785
20.569  0.370192
20.588  0.412751
20.607  0.493164
20.626  0.442061
20.645  0.558785
20.664  0.52581
20.683  0.671236
20.702  0.785705
20.721  1.08545
20.74  1.15655
20.759  1.27268
20.778  1.33498
20.797  1.44705
20.816  1.63065
20.835  1.66518
20.854  1.67013
20.873  1.51486
20.892  1.4497
20.911  1.58908
20.93  1.81732
20.949  1.77322
20.968  1.89338
20.987  1.87124
21.006  1.62797
21.025  1.64753
21.044  1.71522
21.0631  1.91868
21.0821  1.93371
21.1011  2.034
21.1201  1.89138
21.1391  1.81678
21.1581  1.81101
21.1771  1.71043
21.1961  1.71007
21.2151  1.56866
21.2341  1.55973
21.2531  1.59453
21.2721  1.73488
21.2911  1.4418
21.3101  0.735608
21.3291  0.0981435
21.3481  0.0508806
21.3671  0.0811981
21.3861  0.195582
21.4051  0.182967
21.4241  0.134929
21.4431  0.0457954
21.4621  -0.0274755
21.4811  -0.044273
21.5001  -0.0311664
21.5191  0.0495189
21.5381  0.289085
21.5571  0.292907
21.5761  0.246763
21.5951  0.0588245
21.6141  -0.0283837
21.6331  -0.0513636
21.6522  -0.143588
21.6712  0.0384089
21.6902  0.302516
21.7092  0.229692
21.7282  0.207104
21.7472  0.0658515
21.7662  0.187233
21.7852  0.119182
21.8042  0.205955
21.8232  0.142165
21.8422  0.00382795
21.8612  -0.276022
21.8802  -0.36401
21.8992  -0.0608477
21.9182  0.10209
21.9372  0.306168
21.9562  0.184277
21.9752  0.0260687
21.9942  -0.13724
22.0132  -0.232409
22.0322  0.147295