File: data/processed/Run2_XRD/23_ReMoB2_910psi_noRuby_S_P1_C1_D1w_145.dat
2.93393  0.393879
2.95294  0.206135
2.97194  0.367578
2.99094  0.588655
3.00995  1.35956
3.02895  1.80969
3.04795  1.55185
3.06696  1.06117
3.08596  0.397648
3.10496  0.463814
3.12397  0.34494
3.14297  0.721768
3.16197  1.11034
3.18098  1.71938
3.19998  1.80109
3.21898  2.07718
3.23799  2.202
3.25699  1.94884
3.27599  1.05493
3.295  0.904704
3.314  0.796144
3.333  1.15288
3.35201  1.23505
3.37101  1.65711
3.39001  1.80186
3.40902  1.76879
3.42802  1.64612
3.44702  1.44335
3.46603  1.0615
3.48503  1.20093
3.50403  1.87263
3.52304  2.94999
3.54204  3.91268
3.56104  5.86545
3.58005  8.09675
3.59905  10.5721
3.61805  12.2988
3.63706  12.6541
3.65606  11.4275
3.67506  9.02648
3.69407  6.52962
3.71307  4.64372
3.73207  3.71342
3.75108  2.50264
3.77008  2.26431
3.78908  1.66627
3.80808  1.37585
3.82709  1.23652
3.84609  1.24568
3.86509  1.17651
3.8841  0.846661
3.9031  0.576175
3.9221  0.75386
3.94111  1.07157
3.96011  1.16256
3.97911  1.23094
3.99812  0.940939
4.01712  0.768396
4.03612  0.508241
4.05513  0.505482
4.07413  0.639562
4.09313  0.691006
4.11214  1.11285
4.13114  1.0778
4.15014  1.0014
4.16915  0.801203
4.18815  0.984966
4.20715  1.33472
4.22616  1.40482
4.24516  1.16601
4.26416  1.19032
4.28317  0.85421
4.30217  0.803243
4.32117  0.6683
4.34018  0.510291
4.35918  0.501925
4.37818  0.281743
4.39719  0.247089
4.41619  0.181346
4.43519  -0.120954
4.4542  -0.227861
4.4732  0.156066
4.4922  0.915321
4.51121  1.73221
4.53021  1.10871
4.54921  0.297725
4.56822  -0.137126
4.58722  0.0358905
4.60622  0.295117
4.62523  0.580855
4.64423  0.735053
4.66323  0.86097
4.68224  1.1155
4.70124  0.910979
4.72024  0.594986
4.73924  0.844427
4.75825  1.14146
4.77725  1.02612
4.79625  1.07165
4.81526  1.11499
4.83426  1.10183
4.85326  0.828093
4.87227  1.11805
4.89127  1.65659
4.91027  1.35202
4.92928  0.806633
4.94828  0.599912
4.96728  -0.0144491
4.98629  0.209581
5.00529  0.419404
5.02429  0.583889
5.0433  0.292177
5.0623  0.417512
5.0813  0.19314
5.10031  -0.0141709
5.11931  -0.170935
5.13831  -0.0612329
5.15732  0.50586
5.17632  0.61815
5.19532  0.977912
5.21433  1.08845
5.23333  1.12398
5.25233  0.686763
5.27134  0.682858
5.29034  0.386743
5.30934  0.255935
5.32835  0.299558
5.34735  0.327621
5.36635  0.7476
5.38536  0.500636
5.40436  0.0685811
5.42336  -0.0415317
5.44237  0.213346
5.46137  0.684384
5.48037  0.477639
5.49938  0.307195
5.51838  0.117904
5.53738  -0.00438557
5.55639  0.127721
5.57539  0.177441
5.59439  0.304213
5.6134  0.483234
5.6324  0.572187
5.6514  0.705009
5.67041  1.09214
5.68941  0.816984
5.70841  0.52155
5.72741  -0.0292414
5.74642  -0.0773366
5.76542  -0.0885779
5.78442  0.0816606
5.80343  0.157891
5.82243  0.137643
5.84143  -0.0149863
5.86044  0.0734869
5.87944  0.400434
5.89844  0.676186
5.91745  0.820568
5.93645  1.25628
5.95545  1.48863
5.97446  1.85992
5.99346  2.12755
6.01246  2.39947
6.03147  1.97654
6.05047  2.09887
6.06947  2.02155
6.08848  1.49435
6.10748  1.00565
6.12648  0.818702
6.14549  0.736236
6.16449  0.400322
6.18349  0.0163907
6.2025  -0.1091
6.2215  -0.0627716
6.2405  -0.14058
6.25951  0.39032
6.27851  0.42887
6.29751  0.535812
6.31652  0.00675445
6.33552  0.0467563
6.35452  0.0770984
6.37353  0.214486
6.39253  0.515524
6.41153  0.881146
6.43054  0.962134
6.44954  0.58971
6.46854  0.310364
6.48755  0.238348
6.50655  0.430464
6.52555  0.751937
6.54456  1.26024
6.56356  1.16814
6.58256  1.38034
6.60157  2.63272
6.62057  4.28732
6.63957  5.46995
6.65857  5.54912
6.67758  4.70364
6.69658  3.87962
6.71558  2.77503
6.73459  1.85432
6.75359  0.973143
6.77259  0.310031
6.7916  -0.0296312
6.8106  0.0477813
6.8296  0.132524
6.84861  -0.0556425
6.86761  -0.188785
6.88661  0.373354
6.90562  1.1559
6.92462  1.55862
6.94362  1.80364
6.96263  2.2608
6.98163  3.39714
7.00063  4.6805
7.01964  6.1457
7.03864  7.38621
7.05764  8.89056
7.07665  9.80991
7.09565  11.2363
7.11465  12.6728
7.13366  14.8222
7.15266  16.8249
7.17166  21.1036
7.19067  25.8952
7.20967  33.4174
7.22867  41.2223
7.24768  48.2854
7.26668  53.3903
7.28568  54.6228
7.30469  50.8806
7.32369  45.5277
7.34269  39.0077
7.3617  32.5378
7.3807  26.9735
7.3997  22.3506
7.41871  18.6749
7.43771  16.1606
7.45671  13.623
7.47572  12.1873
7.49472  10.5972
7.51372  9.67478
7.53273  8.37714
7.55173  7.24846
7.57073  6.38764
7.58973  6.03659
7.60874  6.07882
7.62774  5.83127
7.64674  5.44783
7.66575  4.76418
7.68475  3.93722
7.70375  3.77249
7.72276  3.82925
7.74176  4.03712
7.76076  3.497
7.77977  2.88106
7.79877  2.29985
7.81777  2.32872
7.83678  2.17002
7.85578  2.48914
7.87478  2.26056
7.89379  1.98198
7.91279  1.69794
7.93179  1.28368
7.9508  0.907779
7.9698  0.328411
7.9888  0.558066
8.00781  0.435748
8.02681  0.68138
8.04581  0.281079
8.06482  0.277058
8.08382  -0.0956191
8.10282  0.233079
8.12183  0.566047
8.14083  0.475038
8.15983  0.386341
8.17884  0.284462
8.19784  0.252575
8.21684  0.137516
8.23585  0.0519501
8.25485  0.0808291
8.27385  0.320405
8.29286  0.30029
8.31186  0.182587
8.33086  0.0883666
8.34987  0.399484
8.36887  0.715065
8.38787  0.996311
8.40688  0.842196
8.42588  0.897469
8.44488  0.958353
8.46389  0.720932
8.48289  0.296601
8.50189  0.227434
8.52089  0.187556
8.5399  0.692311
8.5589  0.790166
8.5779  0.738467
8.59691  0.211977
8.61591  -0.116858
8.63491  -0.446507
8.65392  -0.388953
8.67292  -0.0310942
8.69192  0.240091
8.71093  0.231776
8.72993  0.108628
8.74893  -0.14498
8.76794  -0.408478
8.78694  -0.386613
8.80594  0.102419
8.82495  0.634284
8.84395  0.650234
8.86295  0.328462
8.88196  -0.291232
8.90096  -0.38935
8.91996  -0.252774
8.93897  -0.0591112
8.95797  -0.00540124
8.97697  -0.0928294
8.99598  -0.193666
9.01498  -0.0707037
9.03398  0.117781
9.05299  0.321862
9.07199  0.480654
9.09099  0.389422
9.11  0.383884
9.129  0.489419
9.148  0.631276
9.16701  1.40147
9.18601  2.13921
9.20501  2.29008
9.22402  2.54697
9.24302  3.08155
9.26202  4.23777
9.28103  5.18097
9.30003  6.40466
9.31903  7.91539
9.33804  10.0823
9.35704  12.3505
9.37604  15.1588
9.39505  18.5947
9.41405  23.385
9.43305  29.2208
9.45206  37.1508
9.47106  47.256
9.49006  60.1601
9.50906  78.1072
9.52807  101.064
9.54707  133.495
9.56607  170.741
9.58508  210
9.60408  246.152
9.62308  274.138
9.64209  291.107
9.66109  294.755
9.68009  287.212
9.6991  272.62
9.7181  255.092
9.7371  237.211
9.75611  218.845
9.77511  200.403
9.79411  183.521
9.81312  168.9
9.83212  155.577
9.85112  143.531
9.87013  132.636
9.88913  122.974
9.90813  113.59
9.92714  106.153
9.94614  99.7006
9.96514  94.6545
9.98415  90.7636
10.0031  86.8978
10.0222  83.7895
10.0412  81.3051
10.0602  78.6435
10.0792  75.8817
10.0982  71.5365
10.1172  66.8335
10.1362  62.0711
10.1552  56.8302
10.1742  51.704
10.1932  46.6381
10.2122  41.9901
10.2312  37.3107
10.2502  32.9771
10.2692  28.7903
10.2882  24.7842
10.3072  20.7872
10.3262  17.6072
10.3452  14.7223
10.3642  12.3023
10.3832  10.3861
10.4022  8.61845
10.4212  6.94128
10.4402  5.1161
10.4592  3.80995
10.4782  2.66734
10.4972  1.80921
10.5162  1.06392
10.5352  0.470528
10.5542  -0.193401
10.5732  -0.679524
10.5923  -0.939362
10.6113  -0.851646
10.6303  -0.498591
10.6493  -0.684787
10.6683  -0.904424
10.6873  -0.705021
10.7063  0.207765
10.7253  1.16369
10.7443  1.67208
10.7633  2.12139
10.7823  2.951
10.8013  3.39137
10.8203  3.77467
10.8393  3.65905
10.8583  3.83074
10.8773  4.02612
10.8963  4.38633
10.9153  4.51695
10.9343  4.04822
10.9533  3.10061
10.9723  2.40316
10.9913  2.23128
11.0103  1.8244
11.0293  1.58865
11.0483  0.728208
11.0673  0.231034
11.0863  -0.0528297
11.1053  0.207581
11.1243  0.645307
11.1433  0.795325
11.1623  1.02696
11.1814  0.809655
11.2004  1.08148
11.2194  1.41809
11.2384  1.51916
11.2574  1.68774
11.2764  1.69509
11.2954  1.47988
11.3144  1.71109
11.3334  1.73779
11.3524  1.85717
11.3714  1.81474
11.3904  2.01885
11.4094  2.1848
11.4284  2.53325
11.4474  2.88758
11.4664  3.13236
11.4854  3.02091
11.5044  2.82206
11.5234  2.54276
11.5424  2.43734
11.5614  2.43314
11.5804  2.91913
11.5994  3.22548
11.6184  2.8639
11.6374  2.55439
11.6564  2.25634
11.6754  1.88434
11.6944  1.44509
11.7134  1.04189
11.7324  0.864862
11.7515  0.545965
11.7705  0.5152
11.7895  0.22929
11.8085  0.0784089
11.8275  -0.166811
11.8465  -0.402152
11.8655  -0.756491
11.8845  -0.562272
11.9035  -0.49416
11.9225  -0.472835
11.9415  -0.955171
11.9605  -0.600458
11.9795  0.0191257
11.9985  0.212873
12.0175  -0.0388098
12.0365  0.117269
12.0555  0.363264
12.0745  0.496115
12.0935  0.655346
12.1125  1.14586
12.1315  2.13757
12.1505  3.20355
12.1695  3.82587
12.1885  4.53747
12.2075  5.76527
12.2265  7.10394
12.2455  8.49661
12.2645  10.3663
12.2835  12.7678
12.3025  15.8827
12.3215  19.5904
12.3406  24.5877
12.3596  30.5936
12.3786  37.7717
12.3976  46.4797
12.4166  58.7719
12.4356  73.8794
12.4546  94.2407
12.4736  119.885
12.4926  150.519
12.5116  190.29
12.5306  234.689
12.5496  288.665
12.5686  344.887
12.5876  400.687
12.6066  448.364
12.6256  483.553
12.6446  503.094
12.6636  506.302
12.6826  496.967
12.7016  471.362
12.7206  438.442
12.7396  399.275
12.7586  354.183
12.7776  306.209
12.7966  260.299
12.8156  214.69
12.8346  175.603
12.8536  140.592
12.8726  111.749
12.8916  89.7441
12.9106  72.0568
12.9297  59.7071
12.9487  50.178
12.9677  43.1613
12.9867  37.5963
13.0057  32.8293
13.0247  29.0468
13.0437  25.9827
13.0627  23.3155
13.0817  21.5573
13.1007  19.8525
13.1197  18.2889
13.1387  16.9488
13.1577  15.5982
13.1767  14.4146
13.1957  13.3854
13.2147  12.6016
13.2337  11.6085
13.2527  10.5826
13.2717  9.84911
13.2907  8.85093
13.3097  7.82774
13.3287  7.30509
13.3477  6.90766
13.3667  5.97065
13.3857  5.09013
13.4047  4.6588
13.4237  4.64502
13.4427  4.3142
13.4617  3.77474
13.4807  3.19643
13.4998  2.96807
13.5188  3.08245
13.5378  3.24645
13.5568  3.17289
13.5758  2.99662
13.5948  3.11765
13.6138  3.09508
13.6328  3.59266
13.6518  3.57528
13.6708  3.54596
13.6898  3.21283
13.7088  3.16028
13.7278  3.26857
13.7468  3.21636
13.7658  3.20751
13.7848  3.29975
13.8038  3.40454
13.8228  3.22712
13.8418  2.78821
13.8608  2.62919
13.8798  2.09889
13.8988  1.63265
13.9178  1.60209
13.9368  1.5585
13.9558  1.37783
13.9748  0.74291
13.9938  0.32939
14.0128  -0.185744
14.0318  -0.214866
14.0508  -0.105979
14.0698  0.0778478
14.0889  -0.076844
14.1079  -0.350709
14.1269  -0.563964
14.1459  -0.291698
14.1649  -0.276505
14.1839  -0.473126
14.2029  -0.511507
14.2219  -0.473625
14.2409  -0.22962
14.2599  -0.155877
14.2789  -0.251415
14.2979  0.201815
14.3169  0.676379
14.3359  1.51442
14.3549  1.9582
14.3739  2.29267
14.3929  2.50119
14.4119  3.01682
14.4309  4.00373
14.4499  4.78321
14.4689  5.01058
14.4879  5.18983
14.5069  5.27581
14.5259  5.89142
14.5449  6.30255
14.5639  7.09731
14.5829  7.41839
14.6019  7.42877
14.6209  7.12711
14.6399  6.95602
14.6589  6.54983
14.678  6.21671
14.697  5.97164
14.716  5.47761
14.735  4.94211
14.754  3.95042
14.773  3.29095
14.792  2.66604
14.811  2.34367
14.83  1.74676
14.849  1.2575
14.868  1.1851
14.887  0.95302
14.906  1.29135
14.925  1.13838
14.944  0.993262
14.963  0.731742
14.982  0.510392
15.001  0.0618627
15.02  -0.264292
15.039  -0.246775
15.058  0.172027
15.077  0.325891
15.096  0.207346
15.115  -0.306271
15.134  -0.389069
15.153  -0.48661
15.172  -0.323625
15.191  -0.144289
15.21  0.0680354
15.229  0.611905
15.2481  0.452426
15.2671  0.31455
15.2861  0.319017
15.3051  0.632775
15.3241  0.786477
15.3431  0.685436
15.3621  0.394296
15.3811  0.3684
15.4001  0.198182
15.4191  0.492357
15.4381  0.454768
15.4571  0.63164
15.4761  0.256859
15.4951  0.477905
15.5141  0.921714
15.5331  1.18868
15.5521  0.777462
15.5711  0.489146
15.5901  0.341715
15.6091  0.475747
15.6281  0.815873
15.6471  1.24008
15.6661  1.18488
15.6851  1.09278
15.7041  1.0281
15.7231  1.07138
15.7421  0.789779
15.7611  0.826379
15.7801  0.815661
15.7991  0.718007
15.8181  0.65762
15.8372  0.571464
15.8562  0.34558
15.8752  0.130989
15.8942  0.146961
15.9132  0.19358
15.9322  0.266798
15.9512  0.456888
15.9702  0.102229
15.9892  -0.196912
16.0082  -0.204203
16.0272  0.083544
16.0462  0.303611
16.0652  0.178863
16.0842  -0.0395182
16.1032  -0.141688
16.1222  0.0933174
16.1412  0.05571
16.1602  0.482624
16.1792  0.647829
16.1982  0.807669
16.2172  0.72624
16.2362  0.445582
16.2552  0.680176
16.2742  0.780237
16.2932  1.3321
16.3122  1.78232
16.3312  2.20492
16.3502  2.55325
16.3692  3.10757
16.3882  3.59189
16.4073  3.95823
16.4263  4.62382
16.4453  5.43389
16.4643  6.64269
16.4833  7.84911
16.5023  8.96436
16.5213  10.0754
16.5403  11.8282
16.5593  13.7155
16.5783  16.2293
16.5973  18.6098
16.6163  20.9764
16.6353  23.5347
16.6543  25.4585
16.6733  27.1693
16.6923  28.6357
16.7113  29.8873
16.7303  31.149
16.7493  32.2498
16.7683  33.1778
16.7873  33.6084
16.8063  33.6789
16.8253  33.3181
16.8443  32.5991
16.8633  31.7567
16.8823  31.0246
16.9013  30.3031
16.9203  29.4371
16.9393  28.4322
16.9583  27.8526
16.9773  26.9364
16.9964  25.9505
17.0154  25.1909
17.0344  24.864
17.0534  23.7561
17.0724  22.337
17.0914  20.577
17.1104  19.7564
17.1294  19.0168
17.1484  18.2939
17.1674  17.3664
17.1864  16.4719
17.2054  15.8123
17.2244  15.2354
17.2434  14.7003
17.2624  14.3908
17.2814  14.1398
17.3004  13.5208
17.3194  12.6239
17.3384  11.7815
17.3574  10.9284
17.3764  9.94867
17.3954  9.16154
17.4144  8.17954
17.4334  7.37417
17.4524  6.93206
17.4714  6.42086
17.4904  5.75986
17.5094  4.82603
17.5284  4.36346
17.5474  4.00754
17.5664  3.39925
17.5855  2.73946
17.6045  2.49566
17.6235  2.60501
17.6425  2.68196
17.6615  2.73721
17.6805  2.19585
17.6995  1.9785
17.7185  1.93388
17.7375  2.24405
17.7565  2.00967
17.7755  1.96546
17.7945  1.90228
17.8135  1.924
17.8325  1.84784
17.8515  1.84564
17.8705  2.12552
17.8895  2.16464
17.9085  2.25448
17.9275  2.22167
17.9465  2.42541
17.9655  2.43404
17.9845  2.22194
18.0035  2.36317
18.0225  2.66334
18.0415  2.64773
18.0605  2.4912
18.0795  2.55489
18.0985  2.66386
18.1175  2.56337
18.1365  2.4973
18.1556  2.67409
18.1746  3.22828
18.1936  3.64573
18.2126  3.97081
18.2316  4.54857
18.2506  4.90273
18.2696  5.11505
18.2886  5.13201
18.3076  5.86294
18.3266  6.62297
18.3456  7.10966
18.3646  7.59118
18.3836  8.30231
18.4026  9.42881
18.4216  10.7778
18.4406  12.5158
18.4596  14.0921
18.4786  15.8565
18.4976  17.923
18.5166  20.1408
18.5356  22.3802
18.5546  24.6376
18.5736  26.6315
18.5926  28.7291
18.6116  30.6052
18.6306  32.216
18.6496  33.8826
18.6686  35.2645
18.6876  36.26
18.7066  36.6611
18.7256  36.748
18.7447  36.611
18.7637  36.1277
18.7827  35.343
18.8017  34.0443
18.8207  32.6718
18.8397  31.5631
18.8587  29.6919
18.8777  27.3184
18.8967  24.7232
18.9157  22.2523
18.9347  19.5141
18.9537  16.9099
18.9727  14.3227
18.9917  11.9039
19.0107  9.68799
19.0297  7.92256
19.0487  6.30244
19.0677  4.85607
19.0867  3.95504
19.1057  3.41144
19.1247  3.01739
19.1437  2.55067
19.1627  2.21548
19.1817  2.12894
19.2007  1.94032
19.2197  1.78222
19.2387  1.52272
19.2577  1.28812
19.2767  0.802381
19.2957  0.778166
19.3148  0.690449
19.3338  0.548717
19.3528  0.224346
19.3718  -0.00147821
19.3908  -0.0472924
19.4098  -0.0208949
19.4288  0.0237843
19.4478  -0.246673
19.4668  -0.417114
19.4858  -0.4009
19.5048  -0.14754
19.5238  -0.0937762
19.5428  -0.270858
19.5618  -0.136312
19.5808  0.150671
19.5998  0.22396
19.6188  0.200877
19.6378  0.424796
19.6568  0.320384
19.6758  0.255394
19.6948  0.406458
19.7138  0.587997
19.7328  0.486989
19.7518  0.619488
19.7708  0.880264
19.7898  0.810776
19.8088  0.342965
19.8278  -0.00630728
19.8468  -0.0518169
19.8658  -0.0135994
19.8848  -0.0311167
19.9039  -0.0808468
19.9229  -0.119068
19.9419  0.126128
19.9609  0.37238
19.9799  0.467347
19.9989  0.551003
20.0179  0.590828
20.0369  0.431535
20.0559  0.411903
20.0749  0.29994
20.0939  0.0624826
20.1129  -0.0568974
20.1319  0.142392
20.1509  0.0581299
20.1699  0.0375555
20.1889  -0.0693826
20.2079  -0.15992
20.2269  0.044841
20.2459  0.34222
20.2649  0.301234
20.2839  0.180913
20.3029  0.174751
20.3219  0.175907
20.3409  0.154589
20.3599  0.0689139
20.3789  0.0103157
20.3979  -0.108611
20.4169  -0.156861
20.4359  0.0836452
20.4549  0.214263
20.4739  0.260268
20.493  0.154068
20.512  0.146693
20.531  0.0201717
20.55  0.138654
20.569  0.17761
20.588  0.314569
20.607  0.293771
20.626  0.287813
20.645  0.305543
20.664  0.405258
20.683  0.516474
20.702  0.68207
20.721  0.705425
20.74  0.705757
20.759  0.573844
20.778  0.686528
20.797  0.948053
20.816  1.09492
20.835  1.384
20.854  1.4492
20.873  1.31485
20.892  1.19858
20.911  1.12907
20.93  1.26526
20.949  1.54533
20.968  1.67312
20.987  1.71594
21.006  1.83033
21.025  1.92092
21.044  1.78053
21.0631  1.68616
21.0821  1.56413
21.1011  1.60387
21.1201  1.52366
21.1391  1.45237
21.1581  1.3017
21.1771  1.51851
21.1961  1.51255
21.2151  1.2163
21.2341  1.04794
21.2531  1.26026
21.2721  1.31075
21.2911  1.28775
21.3101  0.9367
21.3291  0.586361
21.3481  0.316848
21.3671  0.331906
21.3861  0.0232017
21.4051  -0.116031
21.4241  0.00597135
21.4431  0.197793
21.4621  0.279931
21.4811  0.128418
21.5001  0.0798108
21.5191  0.101374
21.5381  0.203989
21.5571  0.100666
21.5761  0.0262088
21.5951  -0.0874827
21.6141  -0.036391
21.6331  0.0632885
21.6522  0.0753298
21.6712  0.180302
21.6902  0.437915
21.7092  0.491694
21.7282  0.249186
21.7472  -0.0680184
21.7662  -0.099722
21.7852  -0.0877109
21.8042  0.103388
21.8232  0.0427576
21.8422  0.0463899
21.8612  0.0321702
21.8802  0.0297328
21.8992  -0.123762
21.9182  -0.0762306
21.9372  0.0449813
21.9562  0.110704
21.9752  0.0388084
21.9942  0.0256392
22.0132  -0.172033
22.0322  0.076319