File: data/processed/Run2_XRD/24_ReMoB2_950psi_noRuby_S_P1_C1_D1w_151.dat
2.93393  0.491961
2.95294  0.488753
2.97194  0.753856
2.99094  1.58342
3.00995  1.67487
3.02895  1.77475
3.04795  1.46613
3.06696  1.51543
3.08596  1.17016
3.10496  1.18624
3.12397  0.782497
3.14297  1.38393
3.16197  1.66672
3.18098  1.61374
3.19998  1.18311
3.21898  1.17566
3.23799  1.13439
3.25699  1.43319
3.27599  1.50029
3.295  1.53073
3.314  1.74022
3.333  2.01043
3.35201  1.74998
3.37101  1.98591
3.39001  2.09471
3.40902  2.0057
3.42802  1.56508
3.44702  1.18414
3.46603  1.71954
3.48503  2.73306
3.50403  3.57294
3.52304  3.75205
3.54204  4.28562
3.56104  5.30487
3.58005  7.27211
3.59905  9.5692
3.61805  12.1553
3.63706  13.0725
3.65606  11.9634
3.67506  9.23906
3.69407  6.57739
3.71307  5.09789
3.73207  4.44498
3.75108  3.93303
3.77008  3.36052
3.78908  3.32432
3.80808  2.37057
3.82709  1.80608
3.84609  1.36825
3.86509  1.46502
3.8841  1.33043
3.9031  1.16499
3.9221  1.45192
3.94111  1.70948
3.96011  1.62239
3.97911  1.91959
3.99812  2.25772
4.01712  2.59986
4.03612  2.11972
4.05513  1.48999
4.07413  1.20965
4.09313  0.829992
4.11214  0.278158
4.13114  -0.153703
4.15014  0.34371
4.16915  1.32439
4.18815  1.81614
4.20715  1.8825
4.22616  1.35345
4.24516  1.1803
4.26416  0.88258
4.28317  1.19122
4.30217  0.997129
4.32117  0.655993
4.34018  0.474638
4.35918  0.666798
4.37818  1.65717
4.39719  1.95381
4.41619  1.49686
4.43519  0.8621
4.4542  0.318902
4.4732  0.361601
4.4922  0.663225
4.51121  1.0965
4.53021  0.858578
4.54921  1.1332
4.56822  0.670446
4.58722  0.559914
4.60622  -0.011288
4.62523  0.478248
4.64423  1.08248
4.66323  1.63439
4.68224  1.66644
4.70124  1.86169
4.72024  1.57573
4.73924  0.68611
4.75825  0.463334
4.77725  0.13517
4.79625  0.491994
4.81526  -0.00166646
4.83426  0.0380038
4.85326  -0.222988
4.87227  0.106326
4.89127  0.400692
4.91027  0.645206
4.92928  0.745592
4.94828  1.50556
4.96728  1.55489
4.98629  1.72176
5.00529  1.28215
5.02429  1.01971
5.0433  0.678069
5.0623  0.797374
5.0813  1.19919
5.10031  1.3009
5.11931  0.924295
5.13831  0.923324
5.15732  0.586486
5.17632  0.220514
5.19532  -0.205821
5.21433  0.254864
5.23333  1.02601
5.25233  1.37985
5.27134  1.28426
5.29034  0.639921
5.30934  0.119747
5.32835  0.293772
5.34735  0.148511
5.36635  0.223825
5.38536  0.0845155
5.40436  0.572135
5.42336  0.862304
5.44237  0.980079
5.46137  0.288818
5.48037  0.322795
5.49938  0.391114
5.51838  0.757102
5.53738  0.687415
5.55639  0.666097
5.57539  0.409411
5.59439  0.295444
5.6134  0.287409
5.6324  0.528143
5.6514  0.745227
5.67041  0.803477
5.68941  0.660928
5.70841  0.344749
5.72741  0.285887
5.74642  0.208885
5.76542  0.0179924
5.78442  0.0228838
5.80343  0.143734
5.82243  0.079913
5.84143  0.0472563
5.86044  -0.154051
5.87944  -0.169841
5.89844  0.0159614
5.91745  0.0790636
5.93645  0.604732
5.95545  1.32205
5.97446  1.78905
5.99346  1.96176
6.01246  1.83638
6.03147  1.91645
6.05047  1.79917
6.06947  1.23664
6.08848  1.04604
6.10748  1.18775
6.12648  1.28501
6.14549  0.999645
6.16449  0.412283
6.18349  0.19547
6.2025  0.232319
6.2215  -0.0165302
6.2405  0.511481
6.25951  0.763147
6.27851  0.919329
6.29751  0.549557
6.31652  0.403342
6.33552  0.229766
6.35452  0.174965
6.37353  0.084482
6.39253  0.215908
6.41153  0.528877
6.43054  0.706719
6.44954  0.702822
6.46854  0.271183
6.48755  -0.100278
6.50655  -0.159743
6.52555  -0.0626524
6.54456  0.38578
6.56356  0.260283
6.58256  0.575374
6.60157  1.48672
6.62057  2.93056
6.63957  4.71661
6.65857  5.96083
6.67758  6.10274
6.69658  5.12138
6.71558  3.57467
6.73459  2.52985
6.75359  1.38594
6.77259  0.469827
6.7916  0.0407766
6.8106  0.235103
6.8296  0.385233
6.84861  0.68832
6.86761  0.517795
6.88661  0.681138
6.90562  0.360029
6.92462  0.189366
6.94362  0.243056
6.96263  0.948113
6.98163  1.76958
7.00063  3.01804
7.01964  4.7033
7.03864  6.97542
7.05764  8.51931
7.07665  9.66192
7.09565  10.5909
7.11465  11.7416
7.13366  13.3291
7.15266  14.7862
7.17166  17.3666
7.19067  20.749
7.20967  26.5112
7.22867  33.3367
7.24768  40.4671
7.26668  46.7194
7.28568  49.533
7.30469  48.5492
7.32369  44.8412
7.34269  40.0609
7.3617  34.4712
7.3807  29.3014
7.3997  24.2982
7.41871  20.3535
7.43771  17.1841
7.45671  14.5251
7.47572  12.3923
7.49472  10.99
7.51372  10.223
7.53273  8.99366
7.55173  8.29144
7.57073  7.61741
7.58973  7.25499
7.60874  6.68835
7.62774  6.44924
7.64674  6.30288
7.66575  6.17628
7.68475  5.97122
7.70375  5.66607
7.72276  5.62558
7.74176  5.66393
7.76076  5.61814
7.77977  5.53745
7.79877  5.35561
7.81777  4.94983
7.83678  4.56617
7.85578  4.12432
7.87478  3.95333
7.89379  3.62212
7.91279  3.65346
7.93179  3.30224
7.9508  2.66994
7.9698  2.23628
7.9888  1.92571
8.00781  1.53479
8.02681  0.926166
8.04581  0.344466
8.06482  0.172523
8.08382  0.314536
8.10282  0.478599
8.12183  0.402965
8.14083  0.446927
8.15983  0.277653
8.17884  0.18826
8.19784  0.489794
8.21684  0.75271
8.23585  0.789248
8.25485  0.363503
8.27385  0.108392
8.29286  0.351993
8.31186  0.707608
8.33086  0.638031
8.34987  0.670063
8.36887  0.562004
8.38787  0.227425
8.40688  -0.14923
8.42588  -0.163367
8.44488  0.204034
8.46389  0.644035
8.48289  0.984064
8.50189  0.933051
8.52089  0.774052
8.5399  0.566013
8.5589  0.248237
8.5779  0.0548678
8.59691  -0.216461
8.61591  -0.418344
8.63491  -0.297884
8.65392  -0.106125
8.67292  0.0943405
8.69192  -0.0370742
8.71093  -0.00614239
8.72993  -0.122086
8.74893  -0.181566
8.76794  -0.205304
8.78694  -0.152451
8.80594  0.0451077
8.82495  0.00814381
8.84395  -0.114406
8.86295  0.0165455
8.88196  0.0942252
8.90096  0.101253
8.91996  0.0806382
8.93897  0.0939114
8.95797  -0.00379287
8.97697  0.193453
8.99598  0.0958737
9.01498  0.170394
9.03398  -0.171883
9.05299  -0.0901226
9.07199  0.20606
9.09099  0.248304
9.11  0.147686
9.129  0.0266793
9.148  0.368198
9.16701  0.652152
9.18601  1.00568
9.20501  1.10846
9.22402  1.50719
9.24302  2.36257
9.26202  2.86655
9.28103  3.45175
9.30003  4.33885
9.31903  5.86846
9.33804  7.61936
9.35704  9.39888
9.37604  11.8986
9.39505  14.7169
9.41405  18.3302
9.43305  22.6599
9.45206  28.1376
9.47106  35.7383
9.49006  45.612
9.50906  59.5172
9.52807  76.9573
9.54707  101.967
9.56607  133.531
9.58508  170.743
9.60408  210.889
9.62308  247.141
9.64209  276.463
9.66109  292.021
9.68009  294.961
9.6991  287.659
9.7181  274.326
9.7371  258.279
9.75611  240.3
9.77511  222.331
9.79411  204.634
9.81312  188.186
9.83212  173.04
9.85112  160.343
9.87013  148.383
9.88913  137.667
9.90813  126.744
9.92714  117.396
9.94614  108.926
9.96514  102.183
9.98415  97.312
10.0031  92.5323
10.0222  88.7545
10.0412  85.7432
10.0602  83.2441
10.0792  80.1355
10.0982  76.4889
10.1172  72.4189
10.1362  68.4147
10.1552  64.0444
10.1742  58.5582
10.1932  53.051
10.2122  47.579
10.2312  42.277
10.2502  37.3006
10.2692  32.8685
10.2882  28.4934
10.3072  24.7614
10.3262  21.4061
10.3452  18.3774
10.3642  15.4612
10.3832  13.2148
10.4022  10.5817
10.4212  8.61214
10.4402  6.76226
10.4592  5.47175
10.4782  4.06694
10.4972  2.91134
10.5162  1.90698
10.5352  0.920779
10.5542  0.33574
10.5732  -0.269481
10.5923  -0.322392
10.6113  -0.38429
10.6303  -0.641207
10.6493  -0.876678
10.6683  -1.23896
10.6873  -0.770123
10.7063  -0.392307
10.7253  0.474103
10.7443  1.34605
10.7633  2.23263
10.7823  2.86127
10.8013  3.36783
10.8203  4.08795
10.8393  4.59074
10.8583  4.88502
10.8773  5.22181
10.8963  4.90793
10.9153  4.65656
10.9343  4.26244
10.9533  3.79192
10.9723  3.543
10.9913  3.07574
11.0103  2.78502
11.0293  2.14976
11.0483  1.10737
11.0673  0.270256
11.0863  -0.0558418
11.1053  -0.0198354
11.1243  0.426532
11.1433  1.09255
11.1623  1.61066
11.1814  1.2831
11.2004  0.871316
11.2194  1.08283
11.2384  1.68091
11.2574  2.05973
11.2764  2.217
11.2954  2.16583
11.3144  2.09413
11.3334  1.95601
11.3524  1.98807
11.3714  1.96226
11.3904  2.20894
11.4094  2.53034
11.4284  2.65001
11.4474  2.80377
11.4664  3.03495
11.4854  3.07985
11.5044  2.69278
11.5234  2.43945
11.5424  2.66771
11.5614  2.74371
11.5804  2.73072
11.5994  2.40933
11.6184  2.18318
11.6374  2.10392
11.6564  2.12301
11.6754  1.9431
11.6944  1.8773
11.7134  1.75597
11.7324  1.83532
11.7515  1.71065
11.7705  0.986632
11.7895  0.234045
11.8085  -0.290988
11.8275  -0.00820126
11.8465  0.0791552
11.8655  -0.0252472
11.8845  -0.441153
11.9035  -0.407431
11.9225  -0.601718
11.9415  -0.594455
11.9605  -0.465756
11.9795  -0.523711
11.9985  -0.480614
12.0175  -0.581886
12.0365  -0.335057
12.0555  0.0766661
12.0745  0.285658
12.0935  0.363684
12.1125  0.448971
12.1315  1.2553
12.1505  1.9972
12.1695  2.71236
12.1885  3.73835
12.2075  5.00078
12.2265  6.27792
12.2455  7.65816
12.2645  9.20195
12.2835  11.1449
12.3025  13.406
12.3215  16.0053
12.3406  19.1893
12.3596  23.4236
12.3786  29.0428
12.3976  35.6989
12.4166  44.4666
12.4356  55.0223
12.4546  69.9792
12.4736  89.1323
12.4926  111.947
12.5116  143.58
12.5306  180.035
12.5496  226.287
12.5686  277.19
12.5876  333.001
12.6066  390.367
12.6256  440.661
12.6446  480.912
12.6636  505.155
12.6826  517.246
12.7016  511.078
12.7206  494.033
12.7396  467.016
12.7586  429.107
12.7776  385.846
12.7966  339.37
12.8156  289.171
12.8346  243.736
12.8536  199.27
12.8726  160.652
12.8916  128.911
12.9106  101.764
12.9297  82.5848
12.9487  67.3737
12.9677  55.9858
12.9867  47.9249
13.0057  41.1215
13.0247  36.3064
13.0437  31.9575
13.0627  28.4957
13.0817  25.5616
13.1007  23.3528
13.1197  21.4757
13.1387  19.8548
13.1577  18.3456
13.1767  16.7151
13.1957  15.219
13.2147  13.9096
13.2337  12.7605
13.2527  11.6265
13.2717  11.0417
13.2907  10.2591
13.3097  9.75818
13.3287  8.97883
13.3477  8.17671
13.3667  7.04831
13.3857  6.23172
13.4047  5.4723
13.4237  4.93891
13.4427  4.56192
13.4617  3.94331
13.4807  3.03095
13.4998  2.60004
13.5188  2.20177
13.5378  2.04633
13.5568  2.19152
13.5758  2.48833
13.5948  2.7393
13.6138  2.65085
13.6328  2.47845
13.6518  1.90582
13.6708  1.67508
13.6898  1.60947
13.7088  1.9548
13.7278  2.23453
13.7468  2.39324
13.7658  2.702
13.7848  3.07332
13.8038  3.34947
13.8228  3.10048
13.8418  2.78723
13.8608  2.44602
13.8798  2.23922
13.8988  1.96867
13.9178  1.77531
13.9368  1.4496
13.9558  1.21459
13.9748  1.08525
13.9938  0.904035
14.0128  0.521478
14.0318  0.100213
14.0508  -0.0269528
14.0698  -0.155233
14.0889  -0.463815
14.1079  -0.544066
14.1269  -0.357544
14.1459  -0.303529
14.1649  -0.289945
14.1839  -0.699501
14.2029  -0.749899
14.2219  -0.324559
14.2409  0.069976
14.2599  0.0374793
14.2789  0.0603252
14.2979  0.471304
14.3169  0.964031
14.3359  1.35265
14.3549  1.50427
14.3739  2.2288
14.3929  3.03269
14.4119  3.64472
14.4309  3.98264
14.4499  4.32619
14.4689  4.65279
14.4879  4.9668
14.5069  5.24101
14.5259  6.22992
14.5449  6.86632
14.5639  7.49131
14.5829  7.7076
14.6019  7.88307
14.6209  8.0953
14.6399  8.07215
14.6589  8.06789
14.678  7.75266
14.697  7.18409
14.716  6.66847
14.735  5.8864
14.754  4.88546
14.773  4.0869
14.792  3.36996
14.811  3.10968
14.83  3.08975
14.849  2.58694
14.868  1.82686
14.887  1.3302
14.906  1.46932
14.925  1.65467
14.944  1.48791
14.963  0.815352
14.982  0.707544
15.001  0.498682
15.02  0.63089
15.039  0.570356
15.058  0.54138
15.077  0.325154
15.096  0.0186915
15.115  -0.228859
15.134  -0.299297
15.153  -0.278887
15.172  -0.468171
15.191  -0.2633
15.21  -0.0272731
15.229  0.159224
15.2481  0.21457
15.2671  0.394897
15.2861  0.386228
15.3051  0.314225
15.3241  0.430718
15.3431  0.357939
15.3621  0.120521
15.3811  -0.0239761
15.4001  0.200729
15.4191  0.292436
15.4381  0.176528
15.4571  0.633972
15.4761  0.964892
15.4951  0.949906
15.5141  0.812053
15.5331  0.826508
15.5521  0.881888
15.5711  0.940019
15.5901  0.937787
15.6091  0.677401
15.6281  0.855409
15.6471  0.867252
15.6661  1.25317
15.6851  1.20325
15.7041  1.40784
15.7231  1.4033
15.7421  1.16715
15.7611  1.01526
15.7801  1.0212
15.7991  1.153
15.8181  0.821508
15.8372  0.889525
15.8562  0.910188
15.8752  0.945864
15.8942  0.667101
15.9132  0.846583
15.9322  0.660353
15.9512  0.735155
15.9702  0.487671
15.9892  0.411072
16.0082  0.295515
16.0272  0.510588
16.0462  0.512412
16.0652  0.046544
16.0842  -0.239209
16.1032  -0.09672
16.1222  0.100947
16.1412  0.173549
16.1602  0.344843
16.1792  0.485722
16.1982  0.335851
16.2172  0.239094
16.2362  0.111762
16.2552  0.438846
16.2742  0.591568
16.2932  1.00106
16.3122  1.34703
16.3312  1.49327
16.3502  1.69723
16.3692  2.02096
16.3882  2.58415
16.4073  2.94239
16.4263  3.45371
16.4453  4.05151
16.4643  4.70269
16.4833  5.38079
16.5023  6.19927
16.5213  7.19886
16.5403  8.50263
16.5593  9.48332
16.5783  10.9641
16.5973  12.9178
16.6163  15.0227
16.6353  16.8012
16.6543  18.4823
16.6733  20.4444
16.6923  22.8253
16.7113  24.7961
16.7303  26.6796
16.7493  27.9593
16.7683  29.0755
16.7873  29.8783
16.8063  30.5335
16.8253  31.0997
16.8443  31.1478
16.8633  30.615
16.8823  30.4655
16.9013  29.982
16.9203  29.5861
16.9393  28.5338
16.9583  28.037
16.9773  27.4536
16.9964  26.8904
17.0154  26.0033
17.0344  25.4495
17.0534  24.6119
17.0724  23.7469
17.0914  22.8122
17.1104  22.0449
17.1294  21.2188
17.1484  20.5042
17.1674  19.6632
17.1864  19.0313
17.2054  17.8069
17.2244  16.7516
17.2434  15.9825
17.2624  15.5404
17.2814  15.1368
17.3004  14.5147
17.3194  13.6018
17.3384  13.003
17.3574  12.2735
17.3764  11.7474
17.3954  11.1255
17.4144  10.479
17.4334  9.57646
17.4524  8.82498
17.4714  8.40254
17.4904  7.69035
17.5094  6.84616
17.5284  5.97403
17.5474  5.44935
17.5664  4.68258
17.5855  4.15389
17.6045  3.68162
17.6235  3.33785
17.6425  3.31231
17.6615  3.24402
17.6805  3.14561
17.6995  2.76592
17.7185  2.38742
17.7375  2.16004
17.7565  2.0552
17.7755  1.93004
17.7945  1.82427
17.8135  1.69507
17.8325  1.71879
17.8515  2.17763
17.8705  2.65233
17.8895  2.63459
17.9085  2.39096
17.9275  2.47813
17.9465  2.72388
17.9655  2.76816
17.9845  2.70258
18.0035  2.61475
18.0225  2.79656
18.0415  2.94405
18.0605  2.70546
18.0795  2.40996
18.0985  2.51057
18.1175  2.5308
18.1365  2.65458
18.1556  2.72488
18.1746  2.90129
18.1936  3.17994
18.2126  3.27706
18.2316  3.53235
18.2506  3.52163
18.2696  3.86235
18.2886  4.21701
18.3076  4.60074
18.3266  5.33862
18.3456  5.64764
18.3646  6.18765
18.3836  6.74699
18.4026  7.53769
18.4216  8.30853
18.4406  9.51502
18.4596  10.8707
18.4786  12.2575
18.4976  13.6568
18.5166  15.54
18.5356  17.3796
18.5546  19.2321
18.5736  21.4065
18.5926  23.6761
18.6116  25.8147
18.6306  27.6746
18.6496  29.4078
18.6686  30.6629
18.6876  32.1561
18.7066  33.3736
18.7256  33.9164
18.7447  34.1337
18.7637  34.0709
18.7827  33.9859
18.8017  33.7979
18.8207  33.3127
18.8397  32.3491
18.8587  30.6454
18.8777  29.0898
18.8967  27.5542
18.9157  25.8244
18.9347  23.592
18.9537  21.256
18.9727  18.8614
18.9917  16.3417
19.0107  13.8546
19.0297  11.6771
19.0487  9.62386
19.0677  7.75567
19.0867  6.35023
19.1057  5.28201
19.1247  4.10918
19.1437  3.13465
19.1627  2.49143
19.1817  2.31631
19.2007  1.96957
19.2197  1.86225
19.2387  1.85683
19.2577  2.31034
19.2767  2.36409
19.2957  2.07626
19.3148  1.51063
19.3338  1.08259
19.3528  0.706245
19.3718  0.430141
19.3908  0.197781
19.4098  0.0690172
19.4288  -0.0927825
19.4478  -0.193682
19.4668  -0.399792
19.4858  -0.358106
19.5048  -0.368249
19.5238  -0.314724
19.5428  -0.3504
19.5618  -0.140963
19.5808  -0.0324178
19.5998  0.135169
19.6188  0.309304
19.6378  0.476501
19.6568  0.520621
19.6758  0.551968
19.6948  0.557917
19.7138  0.435665
19.7328  0.213196
19.7518  0.225568
19.7708  0.316036
19.7898  0.413976
19.8088  0.302275
19.8278  0.31923
19.8468  0.25668
19.8658  0.141502
19.8848  -0.0243441
19.9039  -0.124462
19.9229  -0.163437
19.9419  -0.106254
19.9609  0.0955818
19.9799  0.0946673
19.9989  -0.0278488
20.0179  -0.00815744
20.0369  0.197369
20.0559  0.294928
20.0749  0.328168
20.0939  0.211895
20.1129  0.17271
20.1319  0.000197927
20.1509  0.156862
20.1699  0.00416129
20.1889  0.121176
20.2079  0.168459
20.2269  0.169838
20.2459  -0.0415674
20.2649  -0.0618504
20.2839  0.125654
20.3029  0.253306
20.3219  0.251444
20.3409  0.0900754
20.3599  0.0502152
20.3789  0.0277268
20.3979  0.144576
20.4169  0.0671765
20.4359  0.107206
20.4549  0.184117
20.4739  0.266662
20.493  0.18916
20.512  -0.137789
20.531  -0.161572
20.55  0.0380437
20.569  0.383296
20.588  0.573668
20.607  0.567914
20.626  0.348509
20.645  0.224744
20.664  0.266602
20.683  0.363439
20.702  0.296682
20.721  0.274816
20.74  0.383168
20.759  0.441955
20.778  0.50828
20.797  0.560062
20.816  0.759492
20.835  0.957649
20.854  1.15959
20.873  1.44829
20.892  1.66014
20.911  1.82154
20.93  1.77424
20.949  1.69124
20.968  1.75659
20.987  1.6886
21.006  1.52464
21.025  1.44214
21.044  1.33173
21.0631  1.31214
21.0821  1.52728
21.1011  1.61194
21.1201  1.66594
21.1391  1.77809
21.1581  1.85535
21.1771  1.85717
21.1961  1.68612
21.2151  1.64082
21.2341  1.79071
21.2531  1.70697
21.2721  1.65984
21.2911  1.65156
21.3101  1.21744
21.3291  0.502993
21.3481  0.123798
21.3671  0.246388
21.3861  0.493215
21.4051  0.38443
21.4241  0.228085
21.4431  0.0601089
21.4621  0.0619559
21.4811  0.087265
21.5001  0.0512646
21.5191  -0.218754
21.5381  -0.247744
21.5571  -0.055281
21.5761  0.226129
21.5951  0.374662
21.6141  0.391168
21.6331  0.12782
21.6522  0.178924
21.6712  0.317695
21.6902  0.45727
21.7092  0.473574
21.7282  0.283183
21.7472  0.275513
21.7662  0.189219
21.7852  -0.0012306
21.8042  -0.100897
21.8232  -0.0690864
21.8422  -0.0941763
21.8612  -0.0396167
21.8802  -0.113114
21.8992  -0.0234242
21.9182  0.0867179
21.9372  0.159796
21.9562  0.087235
21.9752  -0.023546
21.9942  -0.0714659
22.0132  -0.115076
22.0322  0.0803237