File: data/processed/Run2_XRD/25_ReMoB2_990psi_noRuby_S_P1_C1_D1w_157.dat
2.93393  0.484003
2.95294  0.120371
2.97194  0.84791
2.99094  1.37894
3.00995  1.31103
3.02895  1.12811
3.04795  1.39395
3.06696  1.14483
3.08596  1.39934
3.10496  1.37517
3.12397  1.63189
3.14297  1.62388
3.16197  1.67179
3.18098  1.50946
3.19998  1.07586
3.21898  0.783331
3.23799  0.731879
3.25699  0.998701
3.27599  1.23104
3.295  1.19968
3.314  1.75613
3.333  2.25297
3.35201  2.52991
3.37101  2.00456
3.39001  0.938853
3.40902  0.598399
3.42802  1.33186
3.44702  2.1178
3.46603  2.54925
3.48503  2.65642
3.50403  2.81526
3.52304  3.43511
3.54204  4.02702
3.56104  4.68476
3.58005  6.34951
3.59905  9.01356
3.61805  11.938
3.63706  13.4858
3.65606  13.8192
3.67506  11.5551
3.69407  9.28549
3.71307  6.42544
3.73207  5.15301
3.75108  4.1198
3.77008  3.07925
3.78908  1.88259
3.80808  1.94916
3.82709  1.62071
3.84609  1.60479
3.86509  0.67955
3.8841  0.668992
3.9031  0.794265
3.9221  0.700157
3.94111  0.68733
3.96011  1.10658
3.97911  1.62654
3.99812  1.4517
4.01712  1.09513
4.03612  0.638221
4.05513  0.599592
4.07413  0.355356
4.09313  0.684108
4.11214  0.422471
4.13114  0.287447
4.15014  0.288006
4.16915  0.0673901
4.18815  0.0274723
4.20715  0.00528863
4.22616  0.0823142
4.24516  0.343494
4.26416  0.592207
4.28317  0.738238
4.30217  1.03531
4.32117  1.04447
4.34018  1.13603
4.35918  1.27267
4.37818  0.868507
4.39719  0.566611
4.41619  0.218013
4.43519  0.677492
4.4542  0.943687
4.4732  0.835444
4.4922  0.613584
4.51121  0.38454
4.53021  -0.00750848
4.54921  0.15681
4.56822  0.230509
4.58722  0.353261
4.60622  0.495649
4.62523  0.84295
4.64423  0.610602
4.66323  0.292197
4.68224  -0.10194
4.70124  -0.137384
4.72024  0.542202
4.73924  1.27401
4.75825  1.03266
4.77725  0.754868
4.79625  0.607815
4.81526  1.19789
4.83426  1.08724
4.85326  1.15027
4.87227  1.04423
4.89127  1.23038
4.91027  1.26355
4.92928  1.01265
4.94828  0.936854
4.96728  0.586971
4.98629  0.789288
5.00529  0.718733
5.02429  0.692436
5.0433  0.743388
5.0623  1.12557
5.0813  1.33023
5.10031  1.43648
5.11931  1.29359
5.13831  0.724495
5.15732  0.136276
5.17632  0.252713
5.19532  0.435125
5.21433  1.0795
5.23333  1.06771
5.25233  1.27544
5.27134  0.65925
5.29034  0.170148
5.30934  -0.148455
5.32835  0.491331
5.34735  0.653693
5.36635  0.871293
5.38536  0.929951
5.40436  1.27376
5.42336  1.18704
5.44237  1.34559
5.46137  0.964819
5.48037  0.692457
5.49938  0.310261
5.51838  0.1318
5.53738  0.0129402
5.55639  0.402399
5.57539  0.220427
5.59439  0.623117
5.6134  0.518397
5.6324  0.887128
5.6514  0.825635
5.67041  0.813865
5.68941  0.380006
5.70841  0.197334
5.72741  -0.0908771
5.74642  0.164704
5.76542  0.365959
5.78442  0.455978
5.80343  0.278313
5.82243  0.507868
5.84143  0.584494
5.86044  0.526633
5.87944  0.26807
5.89844  0.510915
5.91745  0.456661
5.93645  0.468737
5.95545  0.604922
5.97446  1.00511
5.99346  1.43361
6.01246  1.39352
6.03147  1.28226
6.05047  1.60847
6.06947  1.76853
6.08848  1.537
6.10748  1.13005
6.12648  0.711839
6.14549  0.301397
6.16449  0.0998986
6.18349  0.203262
6.2025  0.284035
6.2215  0.382703
6.2405  0.456566
6.25951  0.481496
6.27851  0.525955
6.29751  0.193475
6.31652  0.236568
6.33552  0.23767
6.35452  0.316812
6.37353  0.211677
6.39253  0.40728
6.41153  0.257656
6.43054  0.208672
6.44954  0.0716435
6.46854  -0.140824
6.48755  -0.286538
6.50655  -0.0548276
6.52555  0.641573
6.54456  1.13231
6.56356  1.20203
6.58256  0.950277
6.60157  1.58637
6.62057  2.95545
6.63957  4.60503
6.65857  5.6182
6.67758  5.50805
6.69658  4.94261
6.71558  4.16395
6.73459  3.17397
6.75359  1.94299
6.77259  0.890436
6.7916  0.409248
6.8106  0.0657518
6.8296  -0.111181
6.84861  0.07055
6.86761  0.361979
6.88661  0.600645
6.90562  0.85592
6.92462  1.1997
6.94362  0.981255
6.96263  1.0648
6.98163  1.85001
7.00063  3.12308
7.01964  4.86704
7.03864  6.68309
7.05764  9.04985
7.07665  10.5237
7.09565  12.1218
7.11465  13.3073
7.13366  14.7346
7.15266  16.0502
7.17166  18.1288
7.19067  21.3648
7.20967  26.4645
7.22867  33.5242
7.24768  42.1098
7.26668  50.6041
7.28568  55.5866
7.30469  57.0026
7.32369  55.7285
7.34269  52.2555
7.3617  46.9292
7.3807  40.8944
7.3997  34.5065
7.41871  29.3249
7.43771  25.0951
7.45671  21.2959
7.47572  18.3365
7.49472  16.2125
7.51372  14.7446
7.53273  13.6055
7.55173  12.568
7.57073  11.3308
7.58973  10.6641
7.60874  9.95591
7.62774  9.41467
7.64674  8.87192
7.66575  8.66282
7.68475  8.41512
7.70375  8.12368
7.72276  7.73499
7.74176  7.48514
7.76076  7.28996
7.77977  7.23845
7.79877  6.99906
7.81777  6.32993
7.83678  6.02275
7.85578  5.94338
7.87478  6.5443
7.89379  6.6928
7.91279  6.19302
7.93179  5.37192
7.9508  4.58756
7.9698  4.02762
7.9888  3.39716
8.00781  2.56875
8.02681  2.41483
8.04581  1.76909
8.06482  1.76728
8.08382  0.999748
8.10282  0.952414
8.12183  0.480269
8.14083  0.474196
8.15983  0.245931
8.17884  0.47784
8.19784  0.149386
8.21684  0.140457
8.23585  0.344016
8.25485  0.456245
8.27385  0.364872
8.29286  0.20641
8.31186  0.227256
8.33086  0.306585
8.34987  0.499822
8.36887  0.189967
8.38787  0.0615485
8.40688  0.341973
8.42588  0.799636
8.44488  0.944876
8.46389  1.10295
8.48289  0.700461
8.50189  0.446202
8.52089  0.0114298
8.5399  0.104587
8.5589  0.0940934
8.5779  -0.149146
8.59691  -0.494202
8.61591  -0.540386
8.63491  -0.332693
8.65392  -0.00746258
8.67292  0.0786068
8.69192  0.237129
8.71093  0.170103
8.72993  0.0844158
8.74893  0.257284
8.76794  0.521576
8.78694  0.238325
8.80594  -0.102895
8.82495  -0.42494
8.84395  -0.144263
8.86295  -0.00843537
8.88196  -0.228837
8.90096  -0.378578
8.91996  -0.219264
8.93897  -0.122827
8.95797  -0.103932
8.97697  0.160429
8.99598  0.590075
9.01498  0.649718
9.03398  0.487735
9.05299  0.434831
9.07199  0.458581
9.09099  0.254177
9.11  0.185711
9.129  0.0648809
9.148  0.293916
9.16701  0.694058
9.18601  1.16108
9.20501  1.2381
9.22402  1.09254
9.24302  1.28069
9.26202  1.75093
9.28103  2.60988
9.30003  3.7749
9.31903  5.44277
9.33804  6.5965
9.35704  7.74195
9.37604  9.13333
9.39505  11.1743
9.41405  13.5558
9.43305  16.8447
9.45206  20.9185
9.47106  26.8641
9.49006  33.9815
9.50906  43.9265
9.52807  55.624
9.54707  73.0168
9.56607  95.6386
9.58508  124.617
9.60408  158.31
9.62308  193.327
9.64209  229.725
9.66109  254.053
9.68009  272.103
9.6991  275.964
9.7181  273.861
9.7371  264.057
9.75611  253.593
9.77511  238.763
9.79411  225.103
9.81312  210.775
9.83212  198.826
9.85112  188.355
9.87013  178.442
9.88913  169.48
9.90813  159.958
9.92714  152.141
9.94614  145.618
9.96514  141.347
9.98415  137.944
10.0031  134.794
10.0222  131.948
10.0412  130.582
10.0602  128.844
10.0792  126.236
10.0982  121.357
10.1172  115.724
10.1362  109.831
10.1552  102.303
10.1742  94.1253
10.1932  85.8705
10.2122  77.2067
10.2312  68.4981
10.2502  59.3533
10.2692  51.493
10.2882  43.9847
10.3072  37.5986
10.3262  31.4469
10.3452  26.3402
10.3642  22.3267
10.3832  18.8243
10.4022  15.1462
10.4212  12.1313
10.4402  9.59029
10.4592  7.78002
10.4782  6.27242
10.4972  4.78924
10.5162  3.44258
10.5352  1.93566
10.5542  1.16587
10.5732  0.64499
10.5923  0.187577
10.6113  -0.390894
10.6303  -0.785779
10.6493  -1.00104
10.6683  -1.14929
10.6873  -0.985237
10.7063  -0.907971
10.7253  -0.846448
10.7443  -0.945538
10.7633  -0.535414
10.7823  0.190922
10.8013  0.42088
10.8203  0.913877
10.8393  1.46734
10.8583  2.22445
10.8773  2.62895
10.8963  2.9425
10.9153  3.27391
10.9343  3.36717
10.9533  3.38551
10.9723  3.57014
10.9913  3.6651
11.0103  3.4261
11.0293  3.06559
11.0483  2.23213
11.0673  1.77595
11.0863  1.39372
11.1053  1.31087
11.1243  1.37785
11.1433  1.34428
11.1623  1.32179
11.1814  0.950611
11.2004  1.27663
11.2194  1.78547
11.2384  1.86684
11.2574  1.71016
11.2764  1.53271
11.2954  1.94928
11.3144  2.3686
11.3334  2.41522
11.3524  2.47943
11.3714  2.69293
11.3904  2.69559
11.4094  2.58753
11.4284  2.59135
11.4474  2.68263
11.4664  2.69226
11.4854  3.05055
11.5044  3.32317
11.5234  4.14619
11.5424  4.34694
11.5614  4.59004
11.5804  4.60111
11.5994  4.69421
11.6184  4.77823
11.6374  4.72522
11.6564  4.46794
11.6754  4.47496
11.6944  3.99118
11.7134  3.37172
11.7324  2.91276
11.7515  2.91408
11.7705  2.65499
11.7895  2.19671
11.8085  1.68891
11.8275  1.47687
11.8465  1.18118
11.8655  0.751775
11.8845  0.490058
11.9035  -0.00495102
11.9225  -0.222033
11.9415  -0.801397
11.9605  -0.991744
11.9795  -1.14984
11.9985  -0.65659
12.0175  -0.267538
12.0365  0.425455
12.0555  0.384111
12.0745  0.0227888
12.0935  -0.163726
12.1125  0.347986
12.1315  0.679714
12.1505  0.891772
12.1695  1.5532
12.1885  2.53796
12.2075  3.75163
12.2265  4.54024
12.2455  5.18402
12.2645  6.34068
12.2835  7.45827
12.3025  9.11498
12.3215  11.5449
12.3406  14.4338
12.3596  17.7751
12.3786  21.5142
12.3976  26.5727
12.4166  33.5719
12.4356  41.7064
12.4546  52.9059
12.4736  67.3164
12.4926  84.5334
12.5116  108.717
12.5306  136.289
12.5496  172.436
12.5686  213.029
12.5876  258.228
12.6066  307.448
12.6256  354.085
12.6446  397.852
12.6636  430.699
12.6826  451.644
12.7016  458.354
12.7206  452.018
12.7396  437.598
12.7586  412.067
12.7776  381.168
12.7966  342.026
12.8156  299.869
12.8346  258.612
12.8536  218.829
12.8726  182.176
12.8916  151.787
12.9106  124.464
12.9297  102.501
12.9487  84.5577
12.9677  70.8106
12.9867  59.9632
13.0057  51.223
13.0247  45.199
13.0437  39.7439
13.0627  35.7928
13.0817  32.302
13.1007  29.1683
13.1197  26.8167
13.1387  24.677
13.1577  23.1569
13.1767  21.4597
13.1957  19.9794
13.2147  18.204
13.2337  17.1879
13.2527  15.95
13.2717  14.6654
13.2907  13.0013
13.3097  11.5853
13.3287  10.717
13.3477  9.81721
13.3667  8.89551
13.3857  8.09328
13.4047  7.33599
13.4237  6.77692
13.4427  6.4095
13.4617  5.83488
13.4807  5.2014
13.4998  4.7539
13.5188  4.9044
13.5378  4.71723
13.5568  4.42527
13.5758  3.95786
13.5948  3.5925
13.6138  3.48332
13.6328  3.49416
13.6518  3.7396
13.6708  3.71772
13.6898  3.53384
13.7088  3.6061
13.7278  3.53974
13.7468  3.3684
13.7658  3.20182
13.7848  3.16875
13.8038  3.2143
13.8228  3.21402
13.8418  3.39109
13.8608  3.14498
13.8798  2.8764
13.8988  2.48909
13.9178  2.41723
13.9368  1.73106
13.9558  1.66951
13.9748  1.38474
13.9938  1.22596
14.0128  0.878704
14.0318  0.774234
14.0508  0.553743
14.0698  -0.128064
14.0889  -0.400443
14.1079  -0.48434
14.1269  -0.349975
14.1459  -0.111789
14.1649  -0.217506
14.1839  -0.187335
14.2029  -0.711268
14.2219  -0.858752
14.2409  -0.568264
14.2599  -0.411469
14.2789  -0.347386
14.2979  -0.162024
14.3169  0.48612
14.3359  0.960133
14.3549  1.15592
14.3739  1.5079
14.3929  2.0547
14.4119  2.76267
14.4309  3.10596
14.4499  3.69761
14.4689  4.15762
14.4879  4.71243
14.5069  5.3349
14.5259  6.24881
14.5449  7.25139
14.5639  8.34604
14.5829  9.17965
14.6019  10.0801
14.6209  10.9735
14.6399  12.4674
14.6589  12.9716
14.678  13.0349
14.697  11.7562
14.716  10.5412
14.735  9.05527
14.754  8.06813
14.773  6.77442
14.792  5.6913
14.811  4.78808
14.83  3.83642
14.849  3.09963
14.868  2.65008
14.887  2.13178
14.906  1.759
14.925  1.64501
14.944  1.91842
14.963  1.6629
14.982  1.48657
15.001  1.06761
15.02  0.931724
15.039  0.850147
15.058  0.710581
15.077  0.442462
15.096  0.332038
15.115  -0.0954885
15.134  -0.36475
15.153  -0.401922
15.172  -0.110957
15.191  0.255908
15.21  0.468893
15.229  0.413606
15.2481  0.156461
15.2671  -0.291143
15.2861  -0.117476
15.3051  0.0756046
15.3241  0.596596
15.3431  0.349003
15.3621  0.514612
15.3811  0.154784
15.4001  0.185355
15.4191  0.240061
15.4381  0.346928
15.4571  0.731924
15.4761  0.739758
15.4951  0.703537
15.5141  0.503773
15.5331  0.483898
15.5521  0.450481
15.5711  0.422184
15.5901  0.622887
15.6091  0.744536
15.6281  0.77749
15.6471  0.62727
15.6661  1.05499
15.6851  1.21703
15.7041  1.35219
15.7231  1.37427
15.7421  1.55241
15.7611  1.37508
15.7801  1.08367
15.7991  1.00696
15.8181  1.11617
15.8372  1.00995
15.8562  0.838989
15.8752  0.841605
15.8942  0.999047
15.9132  1.13021
15.9322  1.17105
15.9512  1.09313
15.9702  0.867909
15.9892  0.665816
16.0082  0.552202
16.0272  0.399957
16.0462  0.17848
16.0652  0.0785484
16.0842  0.299859
16.1032  0.579925
16.1222  0.769496
16.1412  0.52194
16.1602  0.226605
16.1792  0.0615214
16.1982  0.225767
16.2172  0.133587
16.2362  -0.0133524
16.2552  0.0833008
16.2742  0.0109702
16.2932  0.268253
16.3122  0.117171
16.3312  0.625487
16.3502  1.02808
16.3692  1.48255
16.3882  1.81023
16.4073  2.19051
16.4263  2.63875
16.4453  2.73999
16.4643  2.83583
16.4833  3.15779
16.5023  3.58507
16.5213  4.16468
16.5403  5.21174
16.5593  6.16675
16.5783  6.96912
16.5973  7.68648
16.6163  8.55237
16.6353  9.33776
16.6543  10.3764
16.6733  11.5355
16.6923  12.9104
16.7113  14.2076
16.7303  15.026
16.7493  15.914
16.7683  16.8273
16.7873  17.7506
16.8063  18.4976
16.8253  19.2137
16.8443  19.9229
16.8633  20.4765
16.8823  20.5277
16.9013  20.2787
16.9203  20.0011
16.9393  19.9787
16.9583  20.0014
16.9773  19.9826
16.9964  20.1422
17.0154  20.1347
17.0344  20.19
17.0534  19.8506
17.0724  19.6714
17.0914  19.1952
17.1104  18.644
17.1294  17.9083
17.1484  17.1709
17.1674  16.9081
17.1864  17.0637
17.2054  17.0609
17.2244  16.7864
17.2434  16.3095
17.2624  16.0802
17.2814  15.9053
17.3004  15.9912
17.3194  15.743
17.3384  15.6279
17.3574  15.3747
17.3764  15.0583
17.3954  14.7757
17.4144  14.2217
17.4334  13.2456
17.4524  12.3119
17.4714  11.9593
17.4904  11.063
17.5094  9.78749
17.5284  8.44493
17.5474  7.5697
17.5664  7.1257
17.5855  6.24766
17.6045  5.61968
17.6235  5.13785
17.6425  4.80643
17.6615  4.32621
17.6805  3.74492
17.6995  3.26608
17.7185  2.91285
17.7375  2.98264
17.7565  2.9631
17.7755  2.9414
17.7945  2.66606
17.8135  2.40525
17.8325  2.20426
17.8515  2.34646
17.8705  2.78552
17.8895  2.70373
17.9085  2.58125
17.9275  2.5964
17.9465  2.92806
17.9655  2.94577
17.9845  2.91285
18.0035  2.99119
18.0225  3.07925
18.0415  2.80575
18.0605  2.8801
18.0795  3.0047
18.0985  2.86384
18.1175  2.55791
18.1365  2.64578
18.1556  3.01462
18.1746  3.20786
18.1936  3.47643
18.2126  3.47533
18.2316  3.55179
18.2506  3.66802
18.2696  3.90326
18.2886  4.0102
18.3076  4.16272
18.3266  4.58473
18.3456  5.00711
18.3646  5.75312
18.3836  6.28187
18.4026  6.76609
18.4216  7.36105
18.4406  8.10429
18.4596  8.77184
18.4786  9.61171
18.4976  10.7642
18.5166  12.1214
18.5356  13.7453
18.5546  15.7937
18.5736  17.9183
18.5926  19.9146
18.6116  21.9637
18.6306  24.1477
18.6496  26.1233
18.6686  27.7289
18.6876  29.3071
18.7066  30.8472
18.7256  31.9804
18.7447  32.6341
18.7637  33.0747
18.7827  33.1151
18.8017  32.9457
18.8207  32.5984
18.8397  32.4581
18.8587  32.0938
18.8777  31.5713
18.8967  30.4229
18.9157  28.9023
18.9347  26.8742
18.9537  25.0654
18.9727  23.2551
18.9917  21.0896
19.0107  18.407
19.0297  15.7648
19.0487  13.5332
19.0677  11.5207
19.0867  9.68826
19.1057  7.96803
19.1247  6.23023
19.1437  4.92681
19.1627  3.94148
19.1817  3.23618
19.2007  2.57693
19.2197  2.09519
19.2387  1.5894
19.2577  1.36116
19.2767  1.28914
19.2957  1.10518
19.3148  0.680842
19.3338  0.310507
19.3528  0.331468
19.3718  0.291606
19.3908  0.0853003
19.4098  0.112139
19.4288  0.194869
19.4478  0.122443
19.4668  -0.0970927
19.4858  -0.18058
19.5048  -0.193233
19.5238  -0.147644
19.5428  -0.132402
19.5618  -0.191254
19.5808  -0.244191
19.5998  -0.200293
19.6188  0.159584
19.6378  0.454486
19.6568  0.218288
19.6758  0.063578
19.6948  -0.0259966
19.7138  0.212059
19.7328  0.086441
19.7518  0.178024
19.7708  0.311312
19.7898  0.474491
19.8088  0.250348
19.8278  0.0295498
19.8468  -0.147184
19.8658  -0.0428372
19.8848  0.129692
19.9039  0.120416
19.9229  0.0812096
19.9419  0.157795
19.9609  0.415412
19.9799  0.371076
19.9989  0.308467
20.0179  0.163022
20.0369  0.391037
20.0559  0.514137
20.0749  0.557158
20.0939  0.45002
20.1129  0.554325
20.1319  0.677355
20.1509  0.852932
20.1699  1.09726
20.1889  1.12812
20.2079  1.01608
20.2269  1.02534
20.2459  0.876932
20.2649  0.529743
20.2839  0.181243
20.3029  -0.0567704
20.3219  0.125695
20.3409  0.388633
20.3599  0.499422
20.3789  0.296112
20.3979  0.0409593
20.4169  0.169156
20.4359  0.295491
20.4549  0.252535
20.4739  0.0679097
20.493  -0.193512
20.512  -0.165395
20.531  -0.0168473
20.55  0.214184
20.569  0.25744
20.588  0.348988
20.607  0.414227
20.626  0.260557
20.645  0.100878
20.664  0.0840943
20.683  0.216221
20.702  0.296843
20.721  0.423486
20.74  0.313354
20.759  0.468942
20.778  0.52195
20.797  0.771105
20.816  0.734212
20.835  0.952507
20.854  1.16307
20.873  1.19979
20.892  0.995829
20.911  0.849631
20.93  0.894108
20.949  1.0478
20.968  1.29079
20.987  1.51423
21.006  1.49559
21.025  1.43361
21.044  1.59841
21.0631  1.65103
21.0821  1.81952
21.1011  1.84032
21.1201  1.81173
21.1391  1.68553
21.1581  1.7091
21.1771  1.7128
21.1961  2.0228
21.2151  2.32979
21.2341  2.30803
21.2531  2.1694
21.2721  2.13558
21.2911  2.17449
21.3101  1.53611
21.3291  0.838088
21.3481  0.775456
21.3671  0.646366
21.3861  0.567636
21.4051  0.630608
21.4241  0.522877
21.4431  0.429363
21.4621  0.242474
21.4811  0.436357
21.5001  0.369279
21.5191  0.0686311
21.5381  -0.290979
21.5571  -0.193312
21.5761  0.0632942
21.5951  0.347285
21.6141  0.269444
21.6331  0.258302
21.6522  0.229418
21.6712  0.322891
21.6902  0.30199
21.7092  0.353988
21.7282  0.136756
21.7472  0.0308798
21.7662  -0.0896092
21.7852  -0.0333396
21.8042  0.0184949
21.8232  -0.00957522
21.8422  -0.0736378
21.8612  -0.259229
21.8802  -0.0704888
21.8992  0.00642777
21.9182  0.196411
21.9372  0.170779
21.9562  0.0760707
21.9752  -0.0977527
21.9942  -0.12934
22.0132  -0.00556407
22.0322  0.0471778