File: data/processed/Run2_XRD/27_ReMoB2_1080psi_noRuby_S_P1_C1_D1w_169.dat
2.93393  0.490529
2.95294  -0.0480644
2.97194  0.381262
2.99094  0.927933
3.00995  1.24573
3.02895  1.68203
3.04795  1.79832
3.06696  1.34314
3.08596  1.11059
3.10496  0.741288
3.12397  0.258397
3.14297  -0.16063
3.16197  0.0518621
3.18098  1.01467
3.19998  1.32072
3.21898  1.66784
3.23799  1.23275
3.25699  1.21051
3.27599  1.14433
3.295  1.08967
3.314  1.39731
3.333  1.48961
3.35201  1.42009
3.37101  1.62072
3.39001  1.32742
3.40902  1.37686
3.42802  1.02741
3.44702  0.700595
3.46603  0.747023
3.48503  1.41697
3.50403  1.75196
3.52304  1.68602
3.54204  1.70092
3.56104  2.44447
3.58005  4.21445
3.59905  6.42492
3.61805  9.26838
3.63706  10.4266
3.65606  10.5643
3.67506  9.02838
3.69407  7.42917
3.71307  6.15111
3.73207  5.47143
3.75108  4.89856
3.77008  3.57411
3.78908  2.3166
3.80808  1.23282
3.82709  1.20648
3.84609  0.985835
3.86509  0.888929
3.8841  0.284726
3.9031  0.0134546
3.9221  0.0423312
3.94111  0.285588
3.96011  0.722055
3.97911  1.05738
3.99812  1.43137
4.01712  1.05113
4.03612  1.27713
4.05513  1.19074
4.07413  1.45667
4.09313  0.806035
4.11214  0.196413
4.13114  0.311212
4.15014  0.359017
4.16915  -0.00106552
4.18815  0.178445
4.20715  -0.0581016
4.22616  0.185109
4.24516  0.324866
4.26416  0.478938
4.28317  0.341
4.30217  0.00117219
4.32117  0.136317
4.34018  0.470233
4.35918  1.02466
4.37818  1.32298
4.39719  0.986071
4.41619  0.105276
4.43519  0.28105
4.4542  0.672825
4.4732  1.23915
4.4922  1.00045
4.51121  0.42394
4.53021  0.162554
4.54921  0.256797
4.56822  0.666404
4.58722  0.765419
4.60622  0.472891
4.62523  -0.0220152
4.64423  -0.0432181
4.66323  0.732492
4.68224  1.11984
4.70124  0.948791
4.72024  0.463632
4.73924  0.386422
4.75825  0.328985
4.77725  1.05987
4.79625  1.26865
4.81526  0.940102
4.83426  0.430019
4.85326  0.605763
4.87227  0.855528
4.89127  0.709519
4.91027  0.905376
4.92928  0.875463
4.94828  1.15526
4.96728  0.69082
4.98629  0.533285
5.00529  0.13628
5.02429  0.369044
5.0433  0.0295746
5.0623  -0.14579
5.0813  0.0222781
5.10031  0.626541
5.11931  0.733387
5.13831  0.795433
5.15732  0.584402
5.17632  0.345638
5.19532  -0.279313
5.21433  -0.159146
5.23333  0.269167
5.25233  0.596851
5.27134  0.564012
5.29034  0.334445
5.30934  0.670814
5.32835  0.578832
5.34735  0.463574
5.36635  0.435888
5.38536  0.50416
5.40436  0.365047
5.42336  0.126806
5.44237  0.637472
5.46137  0.969535
5.48037  1.34637
5.49938  1.33197
5.51838  1.49475
5.53738  1.28547
5.55639  1.0992
5.57539  0.94948
5.59439  0.646009
5.6134  0.522365
5.6324  0.441356
5.6514  0.278623
5.67041  -0.0155158
5.68941  -0.206511
5.70841  -0.0885138
5.72741  0.0929482
5.74642  -0.0714216
5.76542  0.147597
5.78442  0.161117
5.80343  0.377262
5.82243  0.657844
5.84143  0.720336
5.86044  0.533762
5.87944  0.304391
5.89844  0.16472
5.91745  0.157405
5.93645  0.190308
5.95545  0.831939
5.97446  1.61117
5.99346  1.82158
6.01246  1.48327
6.03147  1.21838
6.05047  1.30203
6.06947  1.59256
6.08848  1.68948
6.10748  1.70472
6.12648  1.43412
6.14549  1.41299
6.16449  1.06535
6.18349  0.527951
6.2025  0.325126
6.2215  0.364889
6.2405  0.313811
6.25951  0.146041
6.27851  0.657041
6.29751  0.634933
6.31652  0.644186
6.33552  0.517492
6.35452  0.593923
6.37353  0.852186
6.39253  0.221385
6.41153  -0.159229
6.43054  -0.0453479
6.44954  0.427974
6.46854  0.482475
6.48755  0.211505
6.50655  0.296449
6.52555  0.393687
6.54456  0.62631
6.56356  0.726354
6.58256  0.971508
6.60157  1.30798
6.62057  1.91432
6.63957  2.8797
6.65857  4.10572
6.67758  5.58941
6.69658  6.33793
6.71558  6.26948
6.73459  4.77748
6.75359  3.13613
6.77259  1.76985
6.7916  1.03854
6.8106  0.570675
6.8296  0.445555
6.84861  0.176535
6.86761  0.381789
6.88661  -0.243856
6.90562  0.0403223
6.92462  -0.000560071
6.94362  0.493704
6.96263  0.376332
6.98163  0.73765
7.00063  1.03136
7.01964  1.8866
7.03864  3.40715
7.05764  4.94349
7.07665  6.89156
7.09565  8.89357
7.11465  10.47
7.13366  11.843
7.15266  13.0481
7.17166  15.0513
7.19067  16.3732
7.20967  18.8308
7.22867  22.1364
7.24768  27.0648
7.26668  33.6926
7.28568  39.1869
7.30469  44.3019
7.32369  45.8691
7.34269  44.2704
7.3617  39.3714
7.3807  35.2079
7.3997  29.891
7.41871  25.3331
7.43771  21.1378
7.45671  17.9085
7.47572  15.6383
7.49472  14.1428
7.51372  12.7599
7.53273  11.388
7.55173  10.1509
7.57073  9.26347
7.58973  8.42302
7.60874  7.26226
7.62774  6.65736
7.64674  6.28146
7.66575  6.05367
7.68475  5.94613
7.70375  5.66387
7.72276  5.75039
7.74176  5.6005
7.76076  5.54501
7.77977  4.98443
7.79877  4.99598
7.81777  5.17664
7.83678  5.12002
7.85578  4.78766
7.87478  4.21569
7.89379  3.20592
7.91279  3.09991
7.93179  2.92547
7.9508  3.12261
7.9698  3.28418
7.9888  3.47102
8.00781  3.11224
8.02681  2.68591
8.04581  1.93388
8.06482  1.72482
8.08382  1.42778
8.10282  1.36514
8.12183  1.19411
8.14083  1.08335
8.15983  0.833902
8.17884  0.44348
8.19784  0.326045
8.21684  0.0485244
8.23585  0.0471788
8.25485  0.222142
8.27385  0.305544
8.29286  0.572418
8.31186  0.312915
8.33086  0.0133072
8.34987  0.136153
8.36887  0.139357
8.38787  0.368659
8.40688  -0.0318019
8.42588  0.182018
8.44488  0.059108
8.46389  0.173731
8.48289  0.248419
8.50189  0.312348
8.52089  0.499157
8.5399  0.605708
8.5589  0.727754
8.5779  0.419804
8.59691  -0.0445942
8.61591  -0.239672
8.63491  -0.0634392
8.65392  0.544422
8.67292  0.43985
8.69192  0.138172
8.71093  -0.0851534
8.72993  0.119819
8.74893  0.151953
8.76794  0.126292
8.78694  -0.0372838
8.80594  -0.00484944
8.82495  -0.141582
8.84395  -0.425593
8.86295  -0.181125
8.88196  0.00831279
8.90096  -0.0617471
8.91996  -0.335259
8.93897  -0.452971
8.95797  -0.168666
8.97697  -0.0267771
8.99598  0.0979761
9.01498  0.23879
9.03398  0.302355
9.05299  0.288935
9.07199  0.26733
9.09099  0.00318335
9.11  -0.0161388
9.129  -0.212579
9.148  0.0305533
9.16701  0.414889
9.18601  0.438291
9.20501  0.536242
9.22402  0.651317
9.24302  1.19571
9.26202  1.71566
9.28103  2.0195
9.30003  2.43338
9.31903  3.19142
9.33804  4.36497
9.35704  5.56775
9.37604  7.00514
9.39505  8.42915
9.41405  10.2559
9.43305  12.7068
9.45206  15.899
9.47106  19.7049
9.49006  24.3077
9.50906  30.9557
9.52807  39.3493
9.54707  51.3974
9.56607  67.1943
9.58508  88.2125
9.60408  115.255
9.62308  148.365
9.64209  187.538
9.66109  226.265
9.68009  261.318
9.6991  284.734
9.7181  296.857
9.7371  297.001
9.75611  289.28
9.77511  274.015
9.79411  255.323
9.81312  237.176
9.83212  219.887
9.85112  204.164
9.87013  189.576
9.88913  177.057
9.90813  165.145
9.92714  152.051
9.94614  139.706
9.96514  127.37
9.98415  116.714
10.0031  105.186
10.0222  97.2878
10.0412  89.7775
10.0602  84.1007
10.0792  79.5325
10.0982  75.1175
10.1172  71.4162
10.1362  67.9613
10.1552  64.8592
10.1742  61.0937
10.1932  57.4898
10.2122  53.9208
10.2312  49.9783
10.2502  45.7408
10.2692  41.2884
10.2882  36.9446
10.3072  33.4172
10.3262  29.9839
10.3452  26.5556
10.3642  23.246
10.3832  20.7892
10.4022  18.1676
10.4212  15.4934
10.4402  12.9507
10.4592  11.0047
10.4782  9.23013
10.4972  7.68841
10.5162  6.12021
10.5352  4.6735
10.5542  3.45483
10.5732  2.62392
10.5923  1.55421
10.6113  0.651566
10.6303  0.0579168
10.6493  -0.212133
10.6683  -0.583904
10.6873  -0.94412
10.7063  -1.08313
10.7253  -0.870604
10.7443  -0.700343
10.7633  -0.293228
10.7823  0.831544
10.8013  1.91121
10.8203  2.87031
10.8393  3.92877
10.8583  4.95133
10.8773  6.15333
10.8963  6.46903
10.9153  6.96558
10.9343  6.99478
10.9533  6.64362
10.9723  6.11268
10.9913  5.07015
11.0103  4.14384
11.0293  3.32483
11.0483  2.58573
11.0673  1.78402
11.0863  1.28065
11.1053  0.802101
11.1243  0.660191
11.1433  0.508811
11.1623  0.24716
11.1814  0.106821
11.2004  -0.0776457
11.2194  0.467572
11.2384  0.914257
11.2574  1.35882
11.2764  1.60115
11.2954  1.63449
11.3144  1.51903
11.3334  1.58395
11.3524  1.50872
11.3714  1.292
11.3904  1.03621
11.4094  1.10196
11.4284  1.48845
11.4474  1.6152
11.4664  1.38805
11.4854  1.19893
11.5044  1.47028
11.5234  1.59987
11.5424  1.60072
11.5614  1.48418
11.5804  1.5118
11.5994  1.23366
11.6184  1.13909
11.6374  1.0766
11.6564  1.0309
11.6754  0.896047
11.6944  1.10459
11.7134  0.981401
11.7324  0.936639
11.7515  0.931624
11.7705  0.897017
11.7895  0.618818
11.8085  0.634244
11.8275  0.980865
11.8465  0.728127
11.8655  0.179905
11.8845  -0.361538
11.9035  -0.435846
11.9225  -0.546211
11.9415  -0.527204
11.9605  -0.327943
11.9795  -0.472451
11.9985  -0.419365
12.0175  -0.373676
12.0365  -0.207486
12.0555  -0.204763
12.0745  -0.0768431
12.0935  -0.227355
12.1125  -0.309061
12.1315  0.0959352
12.1505  0.462331
12.1695  0.755827
12.1885  1.0031
12.2075  1.87915
12.2265  2.74985
12.2455  3.68113
12.2645  4.68571
12.2835  5.55003
12.3025  6.774
12.3215  8.21306
12.3406  9.97676
12.3596  11.9797
12.3786  14.4147
12.3976  17.3814
12.4166  21.1705
12.4356  25.65
12.4546  31.3509
12.4736  38.8568
12.4926  48.3893
12.5116  61.7501
12.5306  77.2058
12.5496  97.6312
12.5686  124.157
12.5876  155.753
12.6066  196.125
12.6256  242.653
12.6446  296.967
12.6636  356.254
12.6826  412.861
12.7016  464.485
12.7206  501.667
12.7396  525.62
12.7586  532.657
12.7776  527.497
12.7966  506.834
12.8156  478.365
12.8346  438.599
12.8536  391.788
12.8726  342.73
12.8916  293.237
12.9106  242.859
12.9297  199.006
12.9487  158.86
12.9677  126.437
12.9867  100.64
13.0057  80.509
13.0247  66.3886
13.0437  54.9575
13.0627  47.2173
13.0817  40.8279
13.1007  35.6962
13.1197  30.963
13.1387  27.232
13.1577  24.4358
13.1767  22.0502
13.1957  20.1706
13.2147  18.4626
13.2337  16.7799
13.2527  14.7367
13.2717  13.0954
13.2907  12.0201
13.3097  11.0252
13.3287  10.2398
13.3477  9.10445
13.3667  8.01317
13.3857  7.02
13.4047  6.05048
13.4237  5.3707
13.4427  4.9726
13.4617  4.37681
13.4807  3.82737
13.4998  3.34058
13.5188  3.25154
13.5378  2.70137
13.5568  2.05385
13.5758  1.47231
13.5948  1.35077
13.6138  1.2679
13.6328  1.14508
13.6518  0.94917
13.6708  1.04169
13.6898  1.08225
13.7088  1.08333
13.7278  0.77039
13.7468  0.786438
13.7658  0.895139
13.7848  1.30083
13.8038  1.57325
13.8228  1.69262
13.8418  1.71356
13.8608  1.45447
13.8798  1.31277
13.8988  1.05607
13.9178  1.12298
13.9368  1.11093
13.9558  1.18487
13.9748  0.90736
13.9938  0.781081
14.0128  0.589063
14.0318  0.547997
14.0508  0.511939
14.0698  0.384272
14.0889  0.0809924
14.1079  -0.0465887
14.1269  0.0170543
14.1459  0.292773
14.1649  -0.00936988
14.1839  -0.230745
14.2029  -0.705362
14.2219  -0.570097
14.2409  -0.404366
14.2599  -0.452219
14.2789  -0.439967
14.2979  -0.302707
14.3169  0.00308071
14.3359  0.339792
14.3549  0.856043
14.3739  1.00851
14.3929  1.02453
14.4119  1.28565
14.4309  2.06439
14.4499  2.88857
14.4689  3.19363
14.4879  3.61668
14.5069  4.16127
14.5259  5.14988
14.5449  5.62356
14.5639  5.83052
14.5829  6.11344
14.6019  6.33326
14.6209  6.64481
14.6399  7.00716
14.6589  7.01583
14.678  7.12963
14.697  7.21443
14.716  7.06175
14.735  6.7705
14.754  6.05707
14.773  5.47885
14.792  5.13122
14.811  4.66709
14.83  4.42959
14.849  3.56911
14.868  3.60398
14.887  3.33646
14.906  3.26956
14.925  2.78411
14.944  2.34142
14.963  1.59364
14.982  1.08488
15.001  0.823692
15.02  0.594923
15.039  0.572295
15.058  0.742659
15.077  0.720585
15.096  0.410628
15.115  0.41866
15.134  0.32131
15.153  0.531108
15.172  0.0571215
15.191  -0.0473468
15.21  -0.100761
15.229  0.12395
15.2481  0.0424594
15.2671  -0.250675
15.2861  -0.143597
15.3051  -0.105496
15.3241  0.0635823
15.3431  0.0546966
15.3621  -0.0198879
15.3811  -0.171466
15.4001  -0.0201974
15.4191  0.154041
15.4381  0.0128357
15.4571  -0.0182824
15.4761  0.233625
15.4951  0.212174
15.5141  0.411749
15.5331  0.379812
15.5521  0.463526
15.5711  0.511038
15.5901  0.72344
15.6091  0.740536
15.6281  0.775927
15.6471  0.64102
15.6661  0.560693
15.6851  0.509588
15.7041  0.596907
15.7231  0.577942
15.7421  0.612196
15.7611  0.600538
15.7801  0.690008
15.7991  0.908734
15.8181  1.12131
15.8372  1.08678
15.8562  0.854276
15.8752  0.749347
15.8942  0.931454
15.9132  0.835206
15.9322  0.914715
15.9512  1.02877
15.9702  1.0918
15.9892  0.646973
16.0082  0.690333
16.0272  0.555632
16.0462  0.707579
16.0652  0.366703
16.0842  0.391073
16.1032  -0.0108487
16.1222  -0.199237
16.1412  0.00102679
16.1602  0.0961769
16.1792  -0.155632
16.1982  -0.120651
16.2172  0.123455
16.2362  0.0242471
16.2552  0.025147
16.2742  0.0256945
16.2932  0.1474
16.3122  0.309447
16.3312  0.498174
16.3502  0.610877
16.3692  0.670575
16.3882  0.591747
16.4073  0.799592
16.4263  1.39584
16.4453  1.96239
16.4643  2.36971
16.4833  2.75899
16.5023  3.43968
16.5213  3.95159
16.5403  4.48918
16.5593  4.77288
16.5783  5.53023
16.5973  6.90403
16.6163  8.39847
16.6353  9.74387
16.6543  11.2756
16.6733  13.0693
16.6923  15.2457
16.7113  17.2385
16.7303  19.6006
16.7493  21.915
16.7683  24.1556
16.7873  26.7969
16.8063  29.1759
16.8253  31.041
16.8443  32.6047
16.8633  33.6245
16.8823  34.5038
16.9013  34.7465
16.9203  34.8492
16.9393  34.8363
16.9583  34.4959
16.9773  33.4722
16.9964  32.0815
17.0154  30.936
17.0344  30.8554
17.0534  30.2878
17.0724  29.3114
17.0914  27.9239
17.1104  26.666
17.1294  25.5466
17.1484  24.8783
17.1674  24.4604
17.1864  23.8053
17.2054  22.7469
17.2244  21.7208
17.2434  20.7664
17.2624  19.7143
17.2814  18.6332
17.3004  17.3699
17.3194  16.1749
17.3384  15.1637
17.3574  14.4808
17.3764  13.8033
17.3954  13.1719
17.4144  12.5073
17.4334  11.6059
17.4524  10.8118
17.4714  10.315
17.4904  9.79695
17.5094  9.01735
17.5284  8.26088
17.5474  7.55519
17.5664  6.83249
17.5855  6.34705
17.6045  5.96405
17.6235  5.54545
17.6425  5.19587
17.6615  4.90162
17.6805  4.56193
17.6995  4.09092
17.7185  3.56514
17.7375  3.20844
17.7565  2.79333
17.7755  2.69375
17.7945  2.51133
17.8135  2.37181
17.8325  2.41702
17.8515  2.39357
17.8705  2.69676
17.8895  2.65484
17.9085  2.52726
17.9275  2.38302
17.9465  2.46783
17.9655  2.33008
17.9845  2.37987
18.0035  2.22951
18.0225  2.30402
18.0415  2.45522
18.0605  2.61821
18.0795  2.57748
18.0985  2.47897
18.1175  2.30445
18.1365  2.1764
18.1556  2.4651
18.1746  2.61634
18.1936  2.99308
18.2126  3.13101
18.2316  2.81992
18.2506  2.542
18.2696  2.81567
18.2886  2.93491
18.3076  3.02673
18.3266  2.99321
18.3456  2.95087
18.3646  2.94619
18.3836  3.00342
18.4026  3.25005
18.4216  3.52936
18.4406  4.11859
18.4596  4.34223
18.4786  4.68703
18.4976  5.12284
18.5166  6.11103
18.5356  7.14413
18.5546  8.22538
18.5736  9.25097
18.5926  10.5245
18.6116  11.8016
18.6306  13.6584
18.6496  16.1955
18.6686  18.4353
18.6876  20.4791
18.7066  21.9792
18.7256  24.0052
18.7447  25.5501
18.7637  26.8831
18.7827  27.7548
18.8017  28.694
18.8207  29.6321
18.8397  30.3068
18.8587  30.3311
18.8777  29.9772
18.8967  29.4362
18.9157  28.6548
18.9347  27.5727
18.9537  26.1228
18.9727  24.8676
18.9917  23.3148
19.0107  21.6
19.0297  19.8687
19.0487  18.2781
19.0677  16.3473
19.0867  14.6092
19.1057  12.5056
19.1247  10.2721
19.1437  8.23964
19.1627  6.49577
19.1817  5.05714
19.2007  3.89033
19.2197  3.0509
19.2387  2.29063
19.2577  1.85792
19.2767  1.58243
19.2957  1.37306
19.3148  1.49881
19.3338  1.48866
19.3528  1.45464
19.3718  1.31826
19.3908  0.981609
19.4098  0.744668
19.4288  0.46411
19.4478  0.361323
19.4668  0.096602
19.4858  -0.0861353
19.5048  0.0336418
19.5238  0.156844
19.5428  0.127789
19.5618  -0.212465
19.5808  -0.459126
19.5998  -0.509781
19.6188  -0.5069
19.6378  -0.303553
19.6568  0.0227443
19.6758  0.288066
19.6948  0.258797
19.7138  0.191877
19.7328  0.158836
19.7518  0.387377
19.7708  0.393105
19.7898  0.822182
19.8088  1.08343
19.8278  1.16429
19.8468  1.13518
19.8658  1.09555
19.8848  0.856374
19.9039  0.645024
19.9229  0.615018
19.9419  0.436832
19.9609  0.308626
19.9799  0.00749206
19.9989  -0.217849
20.0179  -0.112113
20.0369  -0.078886
20.0559  0.0135739
20.0749  -0.0454174
20.0939  0.0240281
20.1129  0.00414524
20.1319  0.130899
20.1509  0.177755
20.1699  0.212319
20.1889  0.296187
20.2079  0.331974
20.2269  0.389136
20.2459  0.444732
20.2649  0.523796
20.2839  0.568427
20.3029  0.397399
20.3219  0.296895
20.3409  0.304175
20.3599  0.129647
20.3789  -0.134548
20.3979  -0.108311
20.4169  0.00779847
20.4359  0.0354152
20.4549  0.0138238
20.4739  0.216835
20.493  0.331501
20.512  0.190548
20.531  -0.0539615
20.55  -0.0608012
20.569  0.0938265
20.588  0.369697
20.607  0.37656
20.626  0.388223
20.645  0.308437
20.664  0.0197766
20.683  -0.0726865
20.702  0.0266824
20.721  0.340722
20.74  0.448776
20.759  0.529625
20.778  0.480031
20.797  0.439114
20.816  0.257656
20.835  0.105864
20.854  0.378354
20.873  0.526751
20.892  0.447807
20.911  0.338386
20.93  0.575002
20.949  0.98925
20.968  1.18966
20.987  1.30291
21.006  1.25915
21.025  1.38932
21.044  1.36544
21.0631  1.42942
21.0821  1.43602
21.1011  1.38619
21.1201  1.16088
21.1391  1.18344
21.1581  1.17097
21.1771  1.25455
21.1961  1.16015
21.2151  1.28369
21.2341  1.38344
21.2531  1.44458
21.2721  1.6721
21.2911  1.86442
21.3101  1.32396
21.3291  0.699902
21.3481  0.393545
21.3671  0.265411
21.3861  0.13605
21.4051  -0.055874
21.4241  0.0136797
21.4431  0.186152
21.4621  0.452635
21.4811  0.376122
21.5001  0.283651
21.5191  -0.0145841
21.5381  0.0589559
21.5571  0.185363
21.5761  0.222008
21.5951  0.188585
21.6141  -0.000303026
21.6331  -0.148763
21.6522  -0.0486285
21.6712  0.0360931
21.6902  0.149167
21.7092  0.351867
21.7282  0.171514
21.7472  0.00133668
21.7662  0.0509253
21.7852  0.181156
21.8042  0.0997749
21.8232  0.0391909
21.8422  -0.173583
21.8612  -0.219778
21.8802  0.0566602
21.8992  0.24662
21.9182  0.108608
21.9372  -0.0749095
21.9562  -0.104184
21.9752  -0.0170374
21.9942  0.00514454
22.0132  0.0550728
22.0322  -0.0218614