File: data/processed/Run2_XRD/28_ReMoB2_1120psi_noRuby_S_P1_C1_D1w_175.dat
2.93393  0.542558
2.95294  0.120122
2.97194  0.329387
2.99094  0.86362
3.00995  0.588945
3.02895  0.623885
3.04795  0.73239
3.06696  0.849515
3.08596  0.873308
3.10496  0.397195
3.12397  0.54236
3.14297  0.108152
3.16197  -0.102141
3.18098  -0.029471
3.19998  0.420319
3.21898  0.559488
3.23799  0.415441
3.25699  1.00666
3.27599  1.27174
3.295  1.83477
3.314  1.27271
3.333  1.34672
3.35201  1.05944
3.37101  1.59432
3.39001  0.994224
3.40902  1.17447
3.42802  0.985673
3.44702  0.889212
3.46603  0.645728
3.48503  0.590287
3.50403  1.36911
3.52304  1.64256
3.54204  2.02226
3.56104  2.27414
3.58005  2.85749
3.59905  3.81059
3.61805  5.00559
3.63706  6.93655
3.65606  9.29234
3.67506  9.95747
3.69407  9.16504
3.71307  7.15162
3.73207  5.53322
3.75108  3.86795
3.77008  2.63248
3.78908  2.12352
3.80808  1.13818
3.82709  0.359103
3.84609  0.373354
3.86509  0.863524
3.8841  1.16102
3.9031  1.28658
3.9221  1.34216
3.94111  0.91962
3.96011  0.868997
3.97911  1.1116
3.99812  1.20757
4.01712  0.909826
4.03612  0.995645
4.05513  0.635277
4.07413  0.477994
4.09313  0.461901
4.11214  0.57263
4.13114  0.746297
4.15014  0.659065
4.16915  0.674308
4.18815  0.52968
4.20715  0.331114
4.22616  0.449124
4.24516  0.260769
4.26416  -0.0992022
4.28317  -0.13239
4.30217  0.0587033
4.32117  0.164877
4.34018  0.739926
4.35918  1.20113
4.37818  1.35784
4.39719  1.08529
4.41619  0.796594
4.43519  0.474318
4.4542  0.00045217
4.4732  -0.0823109
4.4922  0.114763
4.51121  0.315248
4.53021  0.185881
4.54921  0.236784
4.56822  0.0925854
4.58722  -0.18223
4.60622  0.00144086
4.62523  0.4369
4.64423  0.764486
4.66323  1.03246
4.68224  1.17146
4.70124  0.857743
4.72024  0.819746
4.73924  0.354897
4.75825  0.463258
4.77725  0.456202
4.79625  0.862909
4.81526  0.789677
4.83426  0.508988
4.85326  0.263822
4.87227  0.388871
4.89127  0.502318
4.91027  0.21717
4.92928  0.29916
4.94828  0.138108
4.96728  0.066576
4.98629  0.0814412
5.00529  -0.039394
5.02429  0.0969267
5.0433  0.134424
5.0623  -0.106278
5.0813  0.0958538
5.10031  0.224496
5.11931  0.453452
5.13831  0.404618
5.15732  0.635188
5.17632  0.682062
5.19532  0.794307
5.21433  0.373002
5.23333  0.469628
5.25233  0.728785
5.27134  1.33672
5.29034  1.11138
5.30934  0.10964
5.32835  -0.170431
5.34735  0.00334329
5.36635  0.800223
5.38536  1.14089
5.40436  0.869524
5.42336  0.253807
5.44237  0.241427
5.46137  0.76844
5.48037  1.24743
5.49938  1.13652
5.51838  1.07219
5.53738  0.500153
5.55639  0.593893
5.57539  0.40367
5.59439  0.452722
5.6134  0.440387
5.6324  0.192061
5.6514  -0.102572
5.67041  0.537024
5.68941  0.665904
5.70841  0.402477
5.72741  0.26827
5.74642  0.693511
5.76542  0.80822
5.78442  0.887312
5.80343  0.980442
5.82243  0.419887
5.84143  0.155626
5.86044  0.32354
5.87944  0.848193
5.89844  1.11419
5.91745  0.892637
5.93645  0.607359
5.95545  0.548967
5.97446  0.71235
5.99346  0.793249
6.01246  0.64467
6.03147  0.801854
6.05047  1.06477
6.06947  1.80878
6.08848  2.3098
6.10748  2.71767
6.12648  2.24867
6.14549  1.66681
6.16449  1.10833
6.18349  0.964572
6.2025  1.33647
6.2215  1.23383
6.2405  1.18103
6.25951  1.05457
6.27851  0.960805
6.29751  0.638809
6.31652  -0.144198
6.33552  0.10572
6.35452  0.752881
6.37353  1.03688
6.39253  0.575866
6.41153  0.427602
6.43054  0.839776
6.44954  1.31154
6.46854  1.11779
6.48755  0.320151
6.50655  -0.0634503
6.52555  -0.102798
6.54456  0.211318
6.56356  0.206804
6.58256  0.270046
6.60157  0.116705
6.62057  0.33912
6.63957  1.07428
6.65857  1.95061
6.67758  3.00108
6.69658  4.14849
6.71558  5.53296
6.73459  5.6585
6.75359  5.51682
6.77259  4.2974
6.7916  3.1578
6.8106  1.7883
6.8296  0.657292
6.84861  0.719211
6.86761  0.57671
6.88661  0.393957
6.90562  -0.0276894
6.92462  0.159108
6.94362  0.334504
6.96263  0.431917
6.98163  0.184981
7.00063  0.488874
7.01964  0.88726
7.03864  1.28607
7.05764  1.3679
7.07665  1.61626
7.09565  2.57558
7.11465  4.23496
7.13366  6.59693
7.15266  8.56891
7.17166  10.2382
7.19067  11.8379
7.20967  13.4435
7.22867  15.3524
7.24768  17.5143
7.26668  21.2898
7.28568  25.8067
7.30469  32.7376
7.32369  38.3661
7.34269  43.853
7.3617  47.1335
7.3807  46.938
7.3997  42.3479
7.41871  37.4041
7.43771  32.2681
7.45671  27.341
7.47572  23.413
7.49472  20.04
7.51372  17.2101
7.53273  14.7328
7.55173  13.0082
7.57073  11.4644
7.58973  10.4169
7.60874  9.3816
7.62774  8.88112
7.64674  8.27357
7.66575  8.04436
7.68475  7.67706
7.70375  7.46957
7.72276  7.16136
7.74176  6.985
7.76076  6.3713
7.77977  6.31804
7.79877  5.95991
7.81777  5.82259
7.83678  5.49989
7.85578  5.45263
7.87478  5.42066
7.89379  5.02377
7.91279  4.61674
7.93179  4.48502
7.9508  4.49233
7.9698  4.43333
7.9888  4.5012
8.00781  4.48157
8.02681  3.92695
8.04581  3.18928
8.06482  2.98248
8.08382  2.87633
8.10282  2.9106
8.12183  2.39659
8.14083  2.17687
8.15983  1.85642
8.17884  1.50023
8.19784  0.93019
8.21684  0.489431
8.23585  0.211091
8.25485  0.54282
8.27385  0.688985
8.29286  0.519169
8.31186  0.575892
8.33086  0.485182
8.34987  0.661932
8.36887  0.680596
8.38787  0.750154
8.40688  1.02146
8.42588  1.1607
8.44488  0.712651
8.46389  0.449019
8.48289  -0.206122
8.50189  -0.479307
8.52089  -0.421497
8.5399  0.171943
8.5589  0.642361
8.5779  1.11078
8.59691  1.48341
8.61591  1.63295
8.63491  1.25532
8.65392  1.01409
8.67292  0.936796
8.69192  0.844763
8.71093  0.447894
8.72993  0.0382658
8.74893  0.355499
8.76794  0.65516
8.78694  0.598181
8.80594  0.41675
8.82495  0.331904
8.84395  0.694892
8.86295  0.579727
8.88196  0.124261
8.90096  -0.416563
8.91996  -0.235665
8.93897  0.174852
8.95797  -0.11039
8.97697  -0.238532
8.99598  -0.375301
9.01498  -0.228923
9.03398  -0.0939452
9.05299  -0.0532164
9.07199  -0.245815
9.09099  -0.0172702
9.11  -0.158043
9.129  -0.216053
9.148  -0.306906
9.16701  -0.0636161
9.18601  0.357249
9.20501  0.338249
9.22402  0.397843
9.24302  0.217433
9.26202  0.256836
9.28103  0.815722
9.30003  1.44062
9.31903  1.85431
9.33804  2.07027
9.35704  2.58408
9.37604  3.29752
9.39505  4.17152
9.41405  5.08172
9.43305  6.34522
9.45206  7.56679
9.47106  9.16702
9.49006  11.2061
9.50906  14.3983
9.52807  17.8672
9.54707  22.7982
9.56607  28.6364
9.58508  36.2824
9.60408  46.6006
9.62308  59.9814
9.64209  78.6747
9.66109  101.521
9.68009  132.764
9.6991  167.758
9.7181  207.894
9.7371  246.467
9.75611  277.717
9.77511  295.408
9.79411  299.188
9.81312  292.525
9.83212  279.268
9.85112  263.302
9.87013  245.927
9.88913  228.93
9.90813  212.203
9.92714  196.514
9.94614  182.558
9.96514  169.688
9.98415  157.11
10.0031  145.714
10.0222  134.227
10.0412  122.985
10.0602  112.425
10.0792  102.901
10.0982  93.5436
10.1172  86.6455
10.1362  80.823
10.1552  76.1006
10.1742  72.1619
10.1932  68.9003
10.2122  65.9629
10.2312  62.2423
10.2502  58.7581
10.2692  54.9329
10.2882  50.8545
10.3072  46.8918
10.3262  42.6975
10.3452  38.7139
10.3642  35.2443
10.3832  31.9264
10.4022  28.8425
10.4212  25.5043
10.4402  22.1988
10.4592  19.3169
10.4782  16.8128
10.4972  14.3832
10.5162  12.2675
10.5352  10.3285
10.5542  8.84999
10.5732  7.26196
10.5923  5.77191
10.6113  4.46772
10.6303  3.35217
10.6493  2.51034
10.6683  1.43117
10.6873  0.625325
10.7063  0.0566597
10.7253  -0.294471
10.7443  -0.693755
10.7633  -0.936309
10.7823  -1.13704
10.8013  -0.701267
10.8203  -0.45887
10.8393  0.329337
10.8583  0.863845
10.8773  1.99902
10.8963  2.9697
10.9153  4.13254
10.9343  4.98499
10.9533  6.14164
10.9723  6.71062
10.9913  7.04477
11.0103  6.93054
11.0293  6.53092
11.0483  5.51122
11.0673  4.14443
11.0863  2.59156
11.1053  1.91151
11.1243  1.5495
11.1433  1.79801
11.1623  1.09443
11.1814  0.502344
11.2004  0.0247556
11.2194  -0.133172
11.2384  0.00288229
11.2574  0.243992
11.2764  0.443769
11.2954  0.575225
11.3144  0.991003
11.3334  0.886176
11.3524  0.851773
11.3714  0.96903
11.3904  1.42113
11.4094  2.0539
11.4284  2.32263
11.4474  1.97892
11.4664  1.6874
11.4854  1.28079
11.5044  1.06024
11.5234  0.703819
11.5424  1.07713
11.5614  1.31323
11.5804  1.05484
11.5994  0.440586
11.6184  0.346797
11.6374  0.737833
11.6564  0.91618
11.6754  1.40449
11.6944  1.58758
11.7134  1.40352
11.7324  0.805497
11.7515  0.705823
11.7705  0.538586
11.7895  0.501979
11.8085  0.379684
11.8275  0.58299
11.8465  0.229365
11.8655  0.243551
11.8845  0.679538
11.9035  0.976297
11.9225  0.740383
11.9415  0.305118
11.9605  -0.146105
11.9795  -0.577861
11.9985  -0.163092
12.0175  0.141843
12.0365  -0.00731294
12.0555  -0.608532
12.0745  -0.72401
12.0935  -0.489173
12.1125  -0.129621
12.1315  0.00799534
12.1505  -0.0735322
12.1695  -0.492476
12.1885  -0.256654
12.2075  0.294907
12.2265  0.926779
12.2455  0.827785
12.2645  1.12602
12.2835  1.82856
12.3025  2.6258
12.3215  3.28308
12.3406  4.18769
12.3596  5.04364
12.3786  6.19614
12.3976  7.72892
12.4166  9.18216
12.4356  10.832
12.4546  13.0264
12.4736  16.2983
12.4926  19.8095
12.5116  24.17
12.5306  28.5746
12.5496  34.9003
12.5686  43.3781
12.5876  53.9311
12.6066  67.7944
12.6256  84.8606
12.6446  107.213
12.6636  136.868
12.6826  171.627
12.7016  215.512
12.7206  265.939
12.7396  323.07
12.7586  382.482
12.7776  438.464
12.7966  486.417
12.8156  520.138
12.8346  538.746
12.8536  543.031
12.8726  530.048
12.8916  506.828
12.9106  472.736
12.9297  429.218
12.9487  379.32
12.9677  329.271
12.9867  277.093
13.0057  228.591
13.0247  185.197
13.0437  147.042
13.0627  117.329
13.0817  93.7028
13.1007  76.0403
13.1197  61.8082
13.1387  51.7087
13.1577  44.5772
13.1767  38.6591
13.1957  33.8702
13.2147  29.6933
13.2337  26.5358
13.2527  23.9066
13.2717  21.448
13.2907  19.4089
13.3097  17.4738
13.3287  16.1408
13.3477  14.7022
13.3667  13.1954
13.3857  11.5289
13.4047  10.3773
13.4237  9.17792
13.4427  8.62451
13.4617  8.22955
13.4807  7.59341
13.4998  6.74051
13.5188  5.69417
13.5378  4.84689
13.5568  4.04124
13.5758  3.28357
13.5948  2.9439
13.6138  2.6222
13.6328  2.29082
13.6518  1.67088
13.6708  1.58613
13.6898  1.41372
13.7088  1.33349
13.7278  0.938403
13.7468  1.06221
13.7658  1.15018
13.7848  1.34597
13.8038  1.19904
13.8228  0.965982
13.8418  0.874515
13.8608  1.05487
13.8798  1.42404
13.8988  1.44923
13.9178  1.26458
13.9368  1.18419
13.9558  1.21894
13.9748  1.08587
13.9938  0.795465
14.0128  0.626623
14.0318  0.877959
14.0508  0.939402
14.0698  0.994006
14.0889  0.764865
14.1079  0.61728
14.1269  0.246067
14.1459  -0.0578164
14.1649  0.0281071
14.1839  0.0556951
14.2029  0.0956019
14.2219  -0.352915
14.2409  -0.497857
14.2599  -0.538161
14.2789  -0.481643
14.2979  -0.35261
14.3169  -0.582636
14.3359  -0.294085
14.3549  -0.270015
14.3739  -0.146417
14.3929  -0.337926
14.4119  0.0688198
14.4309  0.314447
14.4499  1.02352
14.4689  1.50429
14.4879  2.05599
14.5069  2.13236
14.5259  2.83099
14.5449  3.34882
14.5639  3.83199
14.5829  4.13923
14.6019  4.83601
14.6209  5.4998
14.6399  5.96
14.6589  6.15108
14.678  6.14062
14.697  6.59968
14.716  6.98422
14.735  6.99833
14.754  7.13002
14.773  7.02431
14.792  7.25178
14.811  7.26295
14.83  6.89467
14.849  6.3311
14.868  5.77354
14.887  5.38867
14.906  5.15559
14.925  4.96658
14.944  4.7721
14.963  4.20789
14.982  3.71683
15.001  3.39876
15.02  2.68992
15.039  2.6048
15.058  2.24913
15.077  1.91078
15.096  1.151
15.115  0.971178
15.134  0.791428
15.153  0.591143
15.172  0.30438
15.191  0.631378
15.21  0.699477
15.229  0.359376
15.2481  -0.0911337
15.2671  -0.276259
15.2861  -0.247087
15.3051  -0.000623676
15.3241  0.180269
15.3431  0.395518
15.3621  0.245805
15.3811  -0.113492
15.4001  -0.100683
15.4191  -0.0565172
15.4381  -0.00309578
15.4571  0.165367
15.4761  0.256765
15.4951  0.127139
15.5141  -0.0302269
15.5331  0.131312
15.5521  0.488809
15.5711  0.510455
15.5901  0.171931
15.6091  0.162269
15.6281  0.30069
15.6471  0.540191
15.6661  0.575075
15.6851  0.820501
15.7041  0.850771
15.7231  0.92529
15.7421  0.73598
15.7611  0.511861
15.7801  0.434558
15.7991  0.418353
15.8181  0.522975
15.8372  0.261446
15.8562  0.124614
15.8752  0.629436
15.8942  0.950364
15.9132  1.10621
15.9322  1.09706
15.9512  1.43264
15.9702  1.26672
15.9892  0.934505
16.0082  0.975225
16.0272  1.04946
16.0462  1.27971
16.0652  0.902167
16.0842  0.622614
16.1032  0.210037
16.1222  0.131811
16.1412  0.281343
16.1602  0.407925
16.1792  0.237341
16.1982  0.0097836
16.2172  0.117059
16.2362  -0.0412868
16.2552  -0.0458537
16.2742  -0.243169
16.2932  -0.103888
16.3122  0.144259
16.3312  0.306028
16.3502  0.221186
16.3692  0.268779
16.3882  0.631115
16.4073  0.432827
16.4263  0.188362
16.4453  0.135944
16.4643  0.628037
16.4833  1.26269
16.5023  1.46955
16.5213  1.67977
16.5403  1.70132
16.5593  2.1676
16.5783  2.44697
16.5973  2.86221
16.6163  3.38479
16.6353  4.07418
16.6543  4.76639
16.6733  5.53505
16.6923  6.32028
16.7113  7.18465
16.7303  8.31071
16.7493  10.0697
16.7683  11.9189
16.7873  13.9109
16.8063  15.8439
16.8253  17.9964
16.8443  20.555
16.8633  23.1711
16.8823  25.5897
16.9013  27.9208
16.9203  29.6883
16.9393  32.0119
16.9583  33.8517
16.9773  34.817
16.9964  35.4663
17.0154  35.6702
17.0344  36.1056
17.0534  35.6093
17.0724  34.7529
17.0914  33.9166
17.1104  33.3328
17.1294  32.4815
17.1484  31.2957
17.1674  30.0035
17.1864  28.9681
17.2054  27.9647
17.2244  27.0869
17.2434  26.493
17.2624  25.7291
17.2814  24.9593
17.3004  23.8612
17.3194  22.6347
17.3384  21.5154
17.3574  20.3927
17.3764  19.3039
17.3954  18.5491
17.4144  17.7508
17.4334  16.8297
17.4524  15.9225
17.4714  15.2258
17.4904  14.6079
17.5094  13.8718
17.5284  12.7212
17.5474  11.833
17.5664  11.0973
17.5855  10.5342
17.6045  10.226
17.6235  9.72441
17.6425  9.12957
17.6615  8.54557
17.6805  8.05805
17.6995  7.35549
17.7185  6.42424
17.7375  5.89112
17.7565  5.23436
17.7755  5.04891
17.7945  4.5001
17.8135  4.1396
17.8325  4.03876
17.8515  3.76412
17.8705  3.75896
17.8895  3.45305
17.9085  3.24585
17.9275  2.94582
17.9465  2.86341
17.9655  2.61016
17.9845  2.61869
18.0035  2.73987
18.0225  3.00722
18.0415  2.93412
18.0605  2.82856
18.0795  2.45861
18.0985  2.5264
18.1175  2.50815
18.1365  2.76114
18.1556  2.71569
18.1746  2.63395
18.1936  2.69916
18.2126  2.54069
18.2316  2.38904
18.2506  2.5057
18.2696  2.64131
18.2886  2.60869
18.3076  2.60111
18.3266  2.62204
18.3456  2.30277
18.3646  1.81337
18.3836  1.57967
18.4026  1.7861
18.4216  1.87322
18.4406  1.73011
18.4596  1.58615
18.4786  1.67905
18.4976  1.64619
18.5166  1.73286
18.5356  1.74956
18.5546  1.97085
18.5736  2.26287
18.5926  2.41093
18.6116  2.95957
18.6306  3.6611
18.6496  4.37089
18.6686  5.11291
18.6876  6.33753
18.7066  7.53675
18.7256  8.58033
18.7447  9.78766
18.7637  11.5659
18.7827  13.4358
18.8017  15.1495
18.8207  16.8727
18.8397  18.7044
18.8587  19.9126
18.8777  20.9739
18.8967  21.9203
18.9157  22.8922
18.9347  23.59
18.9537  24.2304
18.9727  24.8093
18.9917  24.9294
19.0107  24.9871
19.0297  24.6149
19.0487  24.3062
19.0677  23.3838
19.0867  22.5759
19.1057  20.9624
19.1247  19.6184
19.1437  18.0141
19.1627  16.5514
19.1817  14.9837
19.2007  13.3366
19.2197  11.9686
19.2387  10.2946
19.2577  8.72022
19.2767  6.90505
19.2957  5.42782
19.3148  4.16167
19.3338  3.17356
19.3528  2.14527
19.3718  1.43012
19.3908  0.893379
19.4098  0.566522
19.4288  0.407432
19.4478  0.508201
19.4668  0.555933
19.4858  0.503368
19.5048  0.462731
19.5238  0.503748
19.5428  0.291208
19.5618  0.035374
19.5808  0.0328908
19.5998  -0.104028
19.6188  -0.137933
19.6378  -0.301558
19.6568  -0.491044
19.6758  -0.403067
19.6948  -0.32656
19.7138  -0.148302
19.7328  -0.0908198
19.7518  -0.157637
19.7708  -0.0913024
19.7898  -0.0151587
19.8088  0.134715
19.8278  0.365676
19.8468  0.429954
19.8658  0.296183
19.8848  0.111272
19.9039  0.261028
19.9229  0.532887
19.9419  0.878004
19.9609  0.856629
19.9799  0.878193
19.9989  0.869695
20.0179  1.05648
20.0369  0.955306
20.0559  0.790525
20.0749  0.658818
20.0939  0.582938
20.1129  0.423067
20.1319  0.110797
20.1509  -0.108309
20.1699  -0.189053
20.1889  -0.168483
20.2079  -0.195045
20.2269  -0.0769314
20.2459  -0.0350357
20.2649  -0.0632215
20.2839  0.0108705
20.3029  -0.00287426
20.3219  -0.0156638
20.3409  0.156614
20.3599  0.203381
20.3789  0.295022
20.3979  0.258621
20.4169  0.287135
20.4359  0.286577
20.4549  0.375188
20.4739  0.361162
20.493  0.104006
20.512  -0.129088
20.531  -0.00156975
20.55  0.217482
20.569  0.280991
20.588  0.107998
20.607  0.0739735
20.626  0.128376
20.645  0.16869
20.664  0.223063
20.683  0.401797
20.702  0.416518
20.721  -0.0605948
20.74  -0.161766
20.759  -0.0914083
20.778  -0.0196253
20.797  -0.0367711
20.816  0.082712
20.835  0.0267839
20.854  0.00495142
20.873  0.0599795
20.892  0.0822891
20.911  0.0631417
20.93  0.11494
20.949  0.308496
20.968  0.331787
20.987  0.536915
21.006  0.88517
21.025  1.13015
21.044  0.945853
21.0631  0.658868
21.0821  0.460095
21.1011  0.443718
21.1201  0.425267
21.1391  0.515887
21.1581  0.698258
21.1771  0.727046
21.1961  0.914443
21.2151  1.03831
21.2341  1.18798
21.2531  1.25759
21.2721  1.26682
21.2911  1.35618
21.3101  1.07799
21.3291  0.724471
21.3481  0.528482
21.3671  0.385725
21.3861  0.256116
21.4051  0.17916
21.4241  0.0925136
21.4431  0.105709
21.4621  -0.0374558
21.4811  0.0339417
21.5001  0.116132
21.5191  0.162907
21.5381  0.183152
21.5571  0.242087
21.5761  0.18695
21.5951  0.162722
21.6141  0.295174
21.6331  0.216675
21.6522  0.088554
21.6712  -0.0268182
21.6902  -0.159176
21.7092  -0.129789
21.7282  0.0311183
21.7472  0.175377
21.7662  0.351697
21.7852  0.360384
21.8042  0.452386
21.8232  0.210245
21.8422  -0.00691642
21.8612  -0.164018
21.8802  -0.166119
21.8992  -0.170194
21.9182  -0.0299762
21.9372  0.0399977
21.9562  0.323875
21.9752  0.0644403
21.9942  -0.189843
22.0132  -0.0664149
22.0322  0.0603457