File: data/processed/Run2_XRD/29_RuMoB2_915psi_noRuby_S_P1_C1_D1w_181.dat
2.93393  0.415315
2.95294  0.111896
2.97194  0.594944
2.99094  1.33503
3.00995  1.51221
3.02895  1.58929
3.04795  1.41328
3.06696  1.11851
3.08596  0.88244
3.10496  1.09258
3.12397  0.831977
3.14297  1.084
3.16197  0.725818
3.18098  1.50876
3.19998  1.54241
3.21898  1.51435
3.23799  1.80765
3.25699  2.52203
3.27599  2.79472
3.295  2.21558
3.314  2.0008
3.333  1.75862
3.35201  1.33735
3.37101  1.02559
3.39001  0.568186
3.40902  0.545302
3.42802  0.88972
3.44702  0.941999
3.46603  0.899783
3.48503  0.801891
3.50403  1.26707
3.52304  1.46466
3.54204  1.80197
3.56104  1.87563
3.58005  2.42114
3.59905  3.24282
3.61805  4.81761
3.63706  6.07414
3.65606  7.60204
3.67506  7.33088
3.69407  6.8431
3.71307  5.75987
3.73207  5.23143
3.75108  4.35303
3.77008  3.20449
3.78908  2.5897
3.80808  1.71454
3.82709  1.05334
3.84609  0.451531
3.86509  0.450355
3.8841  0.533591
3.9031  0.937406
3.9221  1.0868
3.94111  0.990034
3.96011  1.01914
3.97911  0.88506
3.99812  0.846355
4.01712  0.581811
4.03612  0.285268
4.05513  0.257211
4.07413  0.48846
4.09313  0.869965
4.11214  1.11491
4.13114  0.846927
4.15014  0.791732
4.16915  0.934098
4.18815  0.874954
4.20715  0.970476
4.22616  1.11023
4.24516  1.16154
4.26416  0.768451
4.28317  0.227757
4.30217  -0.00360568
4.32117  0.0577347
4.34018  0.175032
4.35918  0.607739
4.37818  0.962921
4.39719  0.505912
4.41619  0.468085
4.43519  -0.181549
4.4542  0.281066
4.4732  0.262195
4.4922  0.715951
4.51121  0.55291
4.53021  0.50097
4.54921  0.631835
4.56822  0.549309
4.58722  0.424732
4.60622  0.35311
4.62523  0.45941
4.64423  0.734935
4.66323  0.179244
4.68224  -0.00898
4.70124  -0.267559
4.72024  0.130207
4.73924  1.08731
4.75825  1.35563
4.77725  1.54602
4.79625  1.07273
4.81526  0.675899
4.83426  0.478555
4.85326  0.255017
4.87227  0.276392
4.89127  0.337859
4.91027  0.910315
4.92928  1.00507
4.94828  0.165159
4.96728  0.11331
4.98629  0.461479
5.00529  0.69124
5.02429  0.372799
5.0433  0.197998
5.0623  0.254456
5.0813  0.398437
5.10031  0.317862
5.11931  0.300593
5.13831  0.145335
5.15732  0.157007
5.17632  0.108688
5.19532  0.535954
5.21433  1.00434
5.23333  1.03531
5.25233  1.07342
5.27134  0.840513
5.29034  0.934021
5.30934  0.92568
5.32835  1.45355
5.34735  1.05023
5.36635  0.856924
5.38536  0.413867
5.40436  0.202933
5.42336  0.000240743
5.44237  0.209889
5.46137  0.0597749
5.48037  0.13524
5.49938  -0.0689868
5.51838  0.124513
5.53738  0.103825
5.55639  0.349769
5.57539  0.459788
5.59439  0.319102
5.6134  0.298898
5.6324  0.117073
5.6514  0.222412
5.67041  0.370372
5.68941  0.419752
5.70841  0.219221
5.72741  0.335917
5.74642  0.213566
5.76542  0.423181
5.78442  0.85394
5.80343  1.17723
5.82243  1.23042
5.84143  0.961733
5.86044  0.721308
5.87944  0.649733
5.89844  0.897208
5.91745  0.903113
5.93645  1.00019
5.95545  1.37813
5.97446  1.72086
5.99346  1.61186
6.01246  1.26866
6.03147  1.11779
6.05047  1.13586
6.06947  1.13459
6.08848  1.58416
6.10748  2.13005
6.12648  2.09589
6.14549  1.42502
6.16449  1.04979
6.18349  0.728859
6.2025  0.194786
6.2215  -0.262327
6.2405  -0.248479
6.25951  0.271688
6.27851  0.786712
6.29751  1.09735
6.31652  0.814874
6.33552  0.827598
6.35452  0.548647
6.37353  0.456134
6.39253  0.450351
6.41153  0.433678
6.43054  0.655872
6.44954  0.974212
6.46854  1.32011
6.48755  1.32565
6.50655  1.09718
6.52555  0.77888
6.54456  0.492208
6.56356  0.463331
6.58256  0.658445
6.60157  0.725729
6.62057  0.135354
6.63957  0.271536
6.65857  0.187151
6.67758  0.897709
6.69658  1.09342
6.71558  2.07628
6.73459  2.14102
6.75359  2.38561
6.77259  1.86903
6.7916  1.23303
6.8106  0.965405
6.8296  0.657942
6.84861  0.592761
6.86761  0.353798
6.88661  -0.337837
6.90562  -0.266269
6.92462  0.172025
6.94362  0.616689
6.96263  0.394261
6.98163  0.101703
7.00063  0.365344
7.01964  0.604576
7.03864  0.915181
7.05764  1.45766
7.07665  2.07974
7.09565  2.66729
7.11465  3.06899
7.13366  4.08406
7.15266  5.13822
7.17166  6.11635
7.19067  6.99742
7.20967  8.5618
7.22867  10.1363
7.24768  12.5726
7.26668  16.0459
7.28568  20.4863
7.30469  26.4606
7.32369  31.1944
7.34269  34.8568
7.3617  36.7469
7.3807  36.3757
7.3997  32.99
7.41871  29.4181
7.43771  26.0737
7.45671  22.2726
7.47572  19.227
7.49472  16.6976
7.51372  15.5375
7.53273  14.4268
7.55173  13.6016
7.57073  12.829
7.58973  12.1184
7.60874  11.1666
7.62774  10.0299
7.64674  9.06578
7.66575  8.69807
7.68475  8.79487
7.70375  9.35856
7.72276  9.272
7.74176  9.18827
7.76076  9.10024
7.77977  8.88061
7.79877  8.32879
7.81777  7.93287
7.83678  7.77706
7.85578  7.67683
7.87478  7.31927
7.89379  6.97563
7.91279  6.58115
7.93179  6.2054
7.9508  5.49637
7.9698  4.91174
7.9888  3.90328
8.00781  3.34052
8.02681  2.91088
8.04581  2.62976
8.06482  2.11024
8.08382  1.65003
8.10282  1.38576
8.12183  1.47305
8.14083  1.22896
8.15983  1.16895
8.17884  1.18144
8.19784  1.18298
8.21684  1.22338
8.23585  1.23181
8.25485  1.07989
8.27385  0.738042
8.29286  0.365911
8.31186  0.247626
8.33086  0.327851
8.34987  0.338746
8.36887  0.397166
8.38787  0.442284
8.40688  0.701612
8.42588  0.605755
8.44488  0.230223
8.46389  -0.0347172
8.48289  -0.183736
8.50189  -0.35535
8.52089  -0.295775
8.5399  -0.0276284
8.5589  0.244952
8.5779  0.508421
8.59691  0.661507
8.61591  0.739591
8.63491  0.359162
8.65392  0.150025
8.67292  0.191971
8.69192  0.433267
8.71093  0.309733
8.72993  0.492346
8.74893  0.167815
8.76794  0.205714
8.78694  0.0668769
8.80594  -0.110143
8.82495  -0.28523
8.84395  -0.376523
8.86295  -0.402094
8.88196  0.0250557
8.90096  0.264514
8.91996  0.468148
8.93897  0.290213
8.95797  -0.0919223
8.97697  -0.15118
8.99598  -0.019711
9.01498  0.281549
9.03398  0.278415
9.05299  -0.0242999
9.07199  0.0285293
9.09099  0.106979
9.11  -0.0849091
9.129  -0.255632
9.148  -0.240076
9.16701  0.173934
9.18601  0.505427
9.20501  0.495023
9.22402  0.767956
9.24302  1.24788
9.26202  1.68458
9.28103  2.24771
9.30003  2.57553
9.31903  3.47363
9.33804  4.15744
9.35704  5.45754
9.37604  6.48434
9.39505  7.42766
9.41405  8.51237
9.43305  9.9178
9.45206  12.0918
9.47106  15.2588
9.49006  18.445
9.50906  22.4406
9.52807  26.9145
9.54707  33.991
9.56607  41.9769
9.58508  52.7291
9.60408  66.3711
9.62308  84.6609
9.64209  110.655
9.66109  141.158
9.68009  182.969
9.6991  225.912
9.7181  273.194
9.7371  315.962
9.75611  343.42
9.77511  355.886
9.79411  348.567
9.81312  330.847
9.83212  306.097
9.85112  280.577
9.87013  253.962
9.88913  230.92
9.90813  209.486
9.92714  190.719
9.94614  173.635
9.96514  158.107
9.98415  143.534
10.0031  129.349
10.0222  116.72
10.0412  104.831
10.0602  94.0275
10.0792  85.2479
10.0982  77.0675
10.1172  70.6959
10.1362  64.8567
10.1552  60.2175
10.1742  55.9735
10.1932  52.306
10.2122  48.8247
10.2312  45.1407
10.2502  41.6519
10.2692  38.4262
10.2882  35.4143
10.3072  32.318
10.3262  29.3842
10.3452  26.135
10.3642  23.5253
10.3832  21.516
10.4022  19.3955
10.4212  16.8002
10.4402  14.0412
10.4592  11.6827
10.4782  10.0581
10.4972  8.55478
10.5162  7.35343
10.5352  5.81422
10.5542  4.58535
10.5732  3.67158
10.5923  2.79939
10.6113  2.32945
10.6303  1.72383
10.6493  1.01154
10.6683  0.327566
10.6873  0.0835081
10.7063  -0.324468
10.7253  -0.596417
10.7443  -0.71642
10.7633  -0.514222
10.7823  -0.461124
10.8013  -0.740879
10.8203  -0.957216
10.8393  -0.59836
10.8583  -0.204091
10.8773  0.475792
10.8963  1.20267
10.9153  1.62252
10.9343  1.62182
10.9533  1.28957
10.9723  1.33866
10.9913  1.76389
11.0103  2.19606
11.0293  2.52986
11.0483  2.22985
11.0673  1.29271
11.0863  0.61474
11.1053  0.601471
11.1243  0.527373
11.1433  0.505979
11.1623  -0.0853161
11.1814  0.0591655
11.2004  0.224243
11.2194  0.36459
11.2384  0.337949
11.2574  0.123114
11.2764  0.0711174
11.2954  -0.0191923
11.3144  0.139814
11.3334  0.139276
11.3524  0.283519
11.3714  0.470984
11.3904  0.656253
11.4094  0.875736
11.4284  1.37963
11.4474  1.50037
11.4664  1.2734
11.4854  1.04398
11.5044  0.906281
11.5234  0.673926
11.5424  0.554914
11.5614  0.808654
11.5804  1.06051
11.5994  0.749929
11.6184  0.766784
11.6374  0.63152
11.6564  0.533173
11.6754  0.76174
11.6944  0.66114
11.7134  0.655289
11.7324  0.78409
11.7515  1.21269
11.7705  1.43608
11.7895  1.05222
11.8085  0.455873
11.8275  0.502598
11.8465  0.526863
11.8655  0.355106
11.8845  -0.419116
11.9035  -0.463857
11.9225  -0.124476
11.9415  0.269938
11.9605  0.233306
11.9795  -0.126435
11.9985  0.113572
12.0175  -0.214564
12.0365  -0.38305
12.0555  -0.823796
12.0745  -0.604733
12.0935  -0.320469
12.1125  0.03579
12.1315  0.421989
12.1505  0.650312
12.1695  0.831289
12.1885  0.651961
12.2075  1.06702
12.2265  1.30877
12.2455  1.73949
12.2645  2.51665
12.2835  3.04005
12.3025  4.00675
12.3215  4.63189
12.3406  6.13981
12.3596  7.54277
12.3786  9.1586
12.3976  10.7304
12.4166  12.5763
12.4356  15.0721
12.4546  18.5289
12.4736  22.5114
12.4926  26.8078
12.5116  32.9151
12.5306  39.5377
12.5496  48.42
12.5686  60.1275
12.5876  74.0891
12.6066  92.6998
12.6256  115.109
12.6446  144.508
12.6636  182.873
12.6826  227.379
12.7016  280.521
12.7206  341.217
12.7396  404.723
12.7586  468.051
12.7776  521.186
12.7966  559.284
12.8156  580.074
12.8346  581.429
12.8536  562.388
12.8726  530.282
12.8916  488.646
12.9106  436.078
12.9297  383.843
12.9487  328.463
12.9677  275.162
12.9867  224.672
13.0057  180.185
13.0247  144.239
13.0437  114.42
13.0627  90.4295
13.0817  72.1771
13.1007  58.8499
13.1197  48.9871
13.1387  41.7003
13.1577  35.7769
13.1767  30.5265
13.1957  26.7691
13.2147  23.3985
13.2337  21.1186
13.2527  18.562
13.2717  16.4322
13.2907  14.5759
13.3097  13.2181
13.3287  12.0123
13.3477  10.3456
13.3667  8.96428
13.3857  7.82965
13.4047  7.01951
13.4237  6.22062
13.4427  5.29027
13.4617  4.64412
13.4807  3.72065
13.4998  3.34463
13.5188  2.84055
13.5378  2.73272
13.5568  1.79309
13.5758  1.47807
13.5948  1.30235
13.6138  1.11302
13.6328  1.17719
13.6518  1.27229
13.6708  1.24066
13.6898  1.1579
13.7088  0.864413
13.7278  0.653415
13.7468  0.493688
13.7658  0.665107
13.7848  0.90547
13.8038  1.09237
13.8228  1.1179
13.8418  1.21135
13.8608  0.963931
13.8798  1.16324
13.8988  1.117
13.9178  0.959578
13.9368  0.726543
13.9558  0.585688
13.9748  0.378905
13.9938  0.30126
14.0128  0.266844
14.0318  0.331959
14.0508  0.253624
14.0698  0.23359
14.0889  0.238995
14.1079  0.21382
14.1269  0.348177
14.1459  0.300233
14.1649  0.246556
14.1839  0.0351859
14.2029  -0.207502
14.2219  -0.29515
14.2409  -0.392032
14.2599  -0.395602
14.2789  -0.589589
14.2979  -0.603172
14.3169  -0.513921
14.3359  -0.125242
14.3549  -0.150248
14.3739  -0.162685
14.3929  -0.239796
14.4119  0.0554353
14.4309  0.0190591
14.4499  0.291436
14.4689  0.471524
14.4879  1.09687
14.5069  1.43684
14.5259  1.48299
14.5449  1.39082
14.5639  1.81779
14.5829  2.66989
14.6019  3.37492
14.6209  3.78953
14.6399  4.36171
14.6589  4.82381
14.678  5.24382
14.697  5.7006
14.716  5.92121
14.735  6.00011
14.754  6.01269
14.773  5.67882
14.792  4.95806
14.811  4.59668
14.83  4.50836
14.849  4.17367
14.868  3.60151
14.887  2.89465
14.906  2.58176
14.925  2.44706
14.944  1.8795
14.963  1.40016
14.982  1.26743
15.001  1.39341
15.02  1.08518
15.039  0.926807
15.058  0.644095
15.077  0.923873
15.096  0.819341
15.115  0.635493
15.134  0.33892
15.153  0.132658
15.172  0.30604
15.191  0.514206
15.21  0.236848
15.229  0.0410566
15.2481  -0.167961
15.2671  -0.00426978
15.2861  -0.0301915
15.3051  -0.227296
15.3241  0.131729
15.3431  0.313629
15.3621  0.609573
15.3811  0.301309
15.4001  0.321705
15.4191  0.498158
15.4381  0.832244
15.4571  0.692715
15.4761  0.443839
15.4951  0.490144
15.5141  0.645161
15.5331  0.615329
15.5521  0.507245
15.5711  0.128201
15.5901  0.326655
15.6091  0.645505
15.6281  1.19447
15.6471  1.0436
15.6661  1.06973
15.6851  0.920242
15.7041  1.15341
15.7231  1.28899
15.7421  1.349
15.7611  1.32157
15.7801  1.27243
15.7991  1.43132
15.8181  1.40627
15.8372  1.49317
15.8562  1.14779
15.8752  0.96785
15.8942  0.716837
15.9132  0.834794
15.9322  1.03479
15.9512  1.41741
15.9702  1.2206
15.9892  1.04294
16.0082  0.811738
16.0272  0.690175
16.0462  0.107504
16.0652  -0.0778274
16.0842  -0.00885401
16.1032  0.18147
16.1222  0.491152
16.1412  0.654171
16.1602  0.663836
16.1792  0.167638
16.1982  -0.0443906
16.2172  0.0486211
16.2362  0.0471103
16.2552  0.204642
16.2742  0.257909
16.2932  0.297127
16.3122  0.0729317
16.3312  -0.0575425
16.3502  0.268612
16.3692  0.28783
16.3882  0.710295
16.4073  0.615352
16.4263  0.67138
16.4453  0.541546
16.4643  0.945215
16.4833  1.01843
16.5023  1.17902
16.5213  1.31374
16.5403  1.90614
16.5593  2.53705
16.5783  3.12045
16.5973  3.5381
16.6163  3.99579
16.6353  4.702
16.6543  5.6044
16.6733  6.50312
16.6923  7.52426
16.7113  8.99087
16.7303  10.6865
16.7493  12.6604
16.7683  14.315
16.7873  16.4292
16.8063  18.6893
16.8253  21.1758
16.8443  23.7867
16.8633  26.4883
16.8823  29.1005
16.9013  31.701
16.9203  33.8719
16.9393  35.8269
16.9583  37.6515
16.9773  38.679
16.9964  39.1135
17.0154  39.0286
17.0344  38.978
17.0534  38.2282
17.0724  37.4762
17.0914  36.2906
17.1104  35.2072
17.1294  33.86
17.1484  32.7114
17.1674  31.9519
17.1864  31.1667
17.2054  30.1413
17.2244  28.8213
17.2434  27.8151
17.2624  27.0726
17.2814  25.7545
17.3004  24.2398
17.3194  22.786
17.3384  21.8032
17.3574  20.8834
17.3764  19.4725
17.3954  18.2431
17.4144  17.2286
17.4334  16.0473
17.4524  14.9648
17.4714  14.0997
17.4904  13.3992
17.5094  12.5645
17.5284  11.6468
17.5474  10.9945
17.5664  10.5371
17.5855  9.79731
17.6045  9.30379
17.6235  8.55525
17.6425  7.95029
17.6615  7.54259
17.6805  7.00399
17.6995  6.14069
17.7185  5.50586
17.7375  5.37187
17.7565  5.12635
17.7755  4.67727
17.7945  4.05083
17.8135  3.72369
17.8325  3.52773
17.8515  3.10305
17.8705  2.88296
17.8895  2.68275
17.9085  2.57469
17.9275  2.31516
17.9465  2.22744
17.9655  1.88379
17.9845  1.97541
18.0035  2.14271
18.0225  2.35819
18.0415  1.93663
18.0605  1.54951
18.0795  1.44433
18.0985  1.66465
18.1175  1.73733
18.1365  1.75781
18.1556  1.73563
18.1746  1.76361
18.1936  1.54133
18.2126  1.74253
18.2316  1.54977
18.2506  1.79373
18.2696  1.7002
18.2886  1.90367
18.3076  1.77187
18.3266  1.81066
18.3456  1.69047
18.3646  1.58898
18.3836  1.20939
18.4026  0.909469
18.4216  0.940384
18.4406  1.39831
18.4596  1.59879
18.4786  1.58867
18.4976  1.54943
18.5166  1.91431
18.5356  2.23444
18.5546  2.78619
18.5736  3.36573
18.5926  3.99354
18.6116  4.64284
18.6306  5.62518
18.6496  6.95398
18.6686  8.5112
18.6876  10.218
18.7066  11.8429
18.7256  14.0053
18.7447  16.1068
18.7637  18.274
18.7827  20.1369
18.8017  21.9927
18.8207  23.8291
18.8397  25.754
18.8587  27.0021
18.8777  28.2428
18.8967  28.7463
18.9157  29.2989
18.9347  29.2824
18.9537  29.5258
18.9727  29.3077
18.9917  28.9542
19.0107  27.7205
19.0297  26.0957
19.0487  24.567
19.0677  23.0212
19.0867  21.5349
19.1057  19.7658
19.1247  17.907
19.1437  15.8471
19.1627  14.1033
19.1817  12.3966
19.2007  10.616
19.2197  8.6069
19.2387  6.72468
19.2577  5.10654
19.2767  3.55925
19.2957  2.38505
19.3148  1.28141
19.3338  0.597586
19.3528  0.248995
19.3718  0.0287591
19.3908  -0.17831
19.4098  -0.149854
19.4288  0.440698
19.4478  0.432412
19.4668  0.448972
19.4858  0.611518
19.5048  1.34108
19.5238  1.49649
19.5428  1.2579
19.5618  1.09985
19.5808  1.32222
19.5998  1.10873
19.6188  1.04616
19.6378  0.754625
19.6568  0.550004
19.6758  0.362235
19.6948  0.372979
19.7138  0.366374
19.7328  0.0930515
19.7518  -0.0168311
19.7708  -0.0828933
19.7898  -0.0389099
19.8088  -0.126011
19.8278  -0.271626
19.8468  -0.0362251
19.8658  0.248589
19.8848  0.51847
19.9039  0.540104
19.9229  0.610141
19.9419  0.639232
19.9609  0.605749
19.9799  0.682174
19.9989  0.554812
20.0179  0.551885
20.0369  0.376343
20.0559  0.290895
20.0749  0.180277
20.0939  0.0645667
20.1129  0.0160508
20.1319  -0.0996486
20.1509  -0.191206
20.1699  -0.101306
20.1889  0.212974
20.2079  0.279395
20.2269  0.123339
20.2459  -0.000903655
20.2649  -0.0295699
20.2839  0.110089
20.3029  0.386144
20.3219  0.694573
20.3409  0.711201
20.3599  0.406156
20.3789  0.323709
20.3979  0.0249325
20.4169  -0.0977207
20.4359  -0.10371
20.4549  0.149817
20.4739  0.0945392
20.493  -0.0287702
20.512  -0.0655379
20.531  -0.0636435
20.55  0.0770463
20.569  0.0870869
20.588  0.255347
20.607  0.233105
20.626  0.113092
20.645  -0.0500035
20.664  0.042807
20.683  0.0736476
20.702  0.158693
20.721  0.14214
20.74  0.182477
20.759  0.130672
20.778  -0.0876543
20.797  -0.0846336
20.816  0.00818431
20.835  0.193216
20.854  0.183256
20.873  0.0618004
20.892  -0.0351954
20.911  0.0439292
20.93  0.277166
20.949  0.435497
20.968  0.560486
20.987  0.383874
21.006  0.365881
21.025  0.363737
21.044  0.537699
21.0631  0.700988
21.0821  0.778841
21.1011  0.75093
21.1201  0.678137
21.1391  0.797579
21.1581  0.969819
21.1771  0.952796
21.1961  0.933327
21.2151  0.665127
21.2341  0.539492
21.2531  0.506639
21.2721  0.590226
21.2911  0.747992
21.3101  0.573514
21.3291  0.472771
21.3481  0.485645
21.3671  0.48343
21.3861  0.338132
21.4051  0.301866
21.4241  0.383489
21.4431  0.138684
21.4621  0.00169049
21.4811  -0.0591687
21.5001  0.0244644
21.5191  0.186252
21.5381  0.277179
21.5571  0.407978
21.5761  0.401456
21.5951  0.355303
21.6141  0.101885
21.6331  -0.147111
21.6522  -0.15558
21.6712  0.122108
21.6902  0.100402
21.7092  0.110321
21.7282  0.0704312
21.7472  0.0416991
21.7662  -0.0210624
21.7852  0.182622
21.8042  0.370079
21.8232  0.263838
21.8422  -0.018437
21.8612  -0.119831
21.8802  -0.182957
21.8992  -0.100433
21.9182  -0.0107316
21.9372  0.166266
21.9562  0.103772
21.9752  0.0377098
21.9942  -0.064593
22.0132  -0.110273
22.0322  0.0636259