File: data/processed/Run2_XRD/2_ReMoB2_355bars_6p1GPa_S_P1_C1_D1w_019.dat
2.93393  0.747018
2.95294  0.716533
2.97194  0.13558
2.99094  -0.157979
3.00995  -0.149987
3.02895  0.924384
3.04795  1.30259
3.06696  1.16152
3.08596  1.19358
3.10496  1.21222
3.12397  1.1882
3.14297  0.798636
3.16197  0.601465
3.18098  0.815017
3.19998  1.33909
3.21898  2.01311
3.23799  2.24893
3.25699  2.09641
3.27599  2.01174
3.295  2.35579
3.314  3.34476
3.333  5.46361
3.35201  7.65802
3.37101  11.6855
3.39001  15.6918
3.40902  18.6171
3.42802  18.3335
3.44702  15.4157
3.46603  11.7998
3.48503  7.86328
3.50403  5.60006
3.52304  3.78556
3.54204  2.70785
3.56104  1.73902
3.58005  1.19259
3.59905  1.19031
3.61805  1.5335
3.63706  1.5997
3.65606  1.44414
3.67506  1.29928
3.69407  1.77459
3.71307  1.96567
3.73207  1.50926
3.75108  0.883544
3.77008  0.219096
3.78908  -0.0710231
3.80808  0.43281
3.82709  0.750187
3.84609  1.33976
3.86509  2.04309
3.8841  1.9231
3.9031  1.44598
3.9221  0.896834
3.94111  0.632501
3.96011  0.704933
3.97911  1.16797
3.99812  1.18639
4.01712  0.52554
4.03612  0.452866
4.05513  0.32048
4.07413  1.14238
4.09313  1.33483
4.11214  1.23319
4.13114  1.09816
4.15014  1.11824
4.16915  1.02579
4.18815  0.784076
4.20715  0.768895
4.22616  0.198428
4.24516  0.380673
4.26416  0.598175
4.28317  0.836268
4.30217  0.430089
4.32117  0.373858
4.34018  0.16925
4.35918  -0.0668542
4.37818  0.00481597
4.39719  0.408119
4.41619  0.556915
4.43519  0.69124
4.4542  0.461687
4.4732  0.1829
4.4922  0.419696
4.51121  0.677069
4.53021  0.797943
4.54921  0.601708
4.56822  0.506032
4.58722  0.587747
4.60622  0.303385
4.62523  -0.0976123
4.64423  0.173037
4.66323  0.465203
4.68224  0.421063
4.70124  0.0108485
4.72024  0.122055
4.73924  0.38677
4.75825  0.588903
4.77725  0.361204
4.79625  0.744333
4.81526  0.79344
4.83426  0.4579
4.85326  0.0466372
4.87227  -0.20696
4.89127  -0.0170807
4.91027  0.157374
4.92928  0.277079
4.94828  0.484129
4.96728  0.765776
4.98629  1.3588
5.00529  1.33046
5.02429  1.23058
5.0433  0.901985
5.0623  0.158425
5.0813  -0.0348618
5.10031  0.347511
5.11931  0.754683
5.13831  0.703056
5.15732  0.684677
5.17632  0.850488
5.19532  0.788593
5.21433  0.507022
5.23333  0.0611518
5.25233  0.313676
5.27134  0.358611
5.29034  0.33905
5.30934  0.0507675
5.32835  -0.0657311
5.34735  -0.217581
5.36635  0.290355
5.38536  0.28929
5.40436  0.687271
5.42336  0.204526
5.44237  -0.00972975
5.46137  0.205195
5.48037  0.329495
5.49938  0.409042
5.51838  0.238911
5.53738  0.651639
5.55639  0.986656
5.57539  1.30382
5.59439  1.92948
5.6134  3.00094
5.6324  3.91966
5.6514  3.7663
5.67041  3.59823
5.68941  2.84078
5.70841  2.50651
5.72741  2.29023
5.74642  2.06914
5.76542  1.69669
5.78442  1.35669
5.80343  0.834738
5.82243  0.43017
5.84143  0.0327723
5.86044  -0.01154
5.87944  0.353636
5.89844  0.275747
5.91745  0.22847
5.93645  0.251623
5.95545  0.53024
5.97446  1.06849
5.99346  1.26473
6.01246  0.912698
6.03147  0.285906
6.05047  -0.117548
6.06947  -0.101533
6.08848  0.0526851
6.10748  0.225939
6.12648  0.646509
6.14549  0.895238
6.16449  1.23188
6.18349  2.11719
6.2025  3.50154
6.2215  5.38777
6.2405  8.22647
6.25951  12.3262
6.27851  15.0885
6.29751  15.5478
6.31652  12.8917
6.33552  8.99012
6.35452  5.40368
6.37353  3.92247
6.39253  4.52536
6.41153  6.3313
6.43054  8.68378
6.44954  10.784
6.46854  12.8354
6.48755  13.493
6.50655  13.054
6.52555  9.91195
6.54456  6.91618
6.56356  4.24194
6.58256  2.41359
6.60157  1.34826
6.62057  1.22746
6.63957  1.2881
6.65857  1.47291
6.67758  2.07148
6.69658  3.00346
6.71558  5.73832
6.73459  10.2912
6.75359  17.5705
6.77259  28.0548
6.7916  41.335
6.8106  54.1569
6.8296  62.5937
6.84861  63.7689
6.86761  59.5679
6.88661  49.8388
6.90562  38.222
6.92462  29.9123
6.94362  22.8934
6.96263  17.0871
6.98163  11.9499
7.00063  8.07136
7.01964  6.07264
7.03864  3.79472
7.05764  2.9885
7.07665  1.6786
7.09565  1.00909
7.11465  0.722157
7.13366  0.499207
7.15266  0.319801
7.17166  0.263296
7.19067  0.196087
7.20967  0.29079
7.22867  0.496134
7.24768  0.436761
7.26668  0.257919
7.28568  0.152762
7.30469  0.0928509
7.32369  0.126703
7.34269  -0.177028
7.3617  0.142045
7.3807  0.1796
7.3997  0.242996
7.41871  0.0640353
7.43771  0.379093
7.45671  0.365331
7.47572  0.675915
7.49472  0.872312
7.51372  1.0894
7.53273  1.33391
7.55173  1.50383
7.57073  1.34466
7.58973  1.6025
7.60874  1.3942
7.62774  1.18949
7.64674  1.16755
7.66575  0.851154
7.68475  0.563394
7.70375  0.177289
7.72276  0.145513
7.74176  0.491108
7.76076  0.625402
7.77977  0.596831
7.79877  0.458006
7.81777  0.232401
7.83678  0.145463
7.85578  0.243157
7.87478  0.152602
7.89379  -0.145362
7.91279  0.11986
7.93179  0.325136
7.9508  0.538575
7.9698  0.421316
7.9888  0.323468
8.00781  0.210964
8.02681  0.52187
8.04581  0.502852
8.06482  0.288195
8.08382  0.183746
8.10282  0.0743456
8.12183  0.280548
8.14083  -0.143469
8.15983  -0.0693212
8.17884  0.00425244
8.19784  0.435908
8.21684  0.509535
8.23585  0.62919
8.25485  0.773399
8.27385  0.449636
8.29286  0.0666002
8.31186  0.0936486
8.33086  0.301067
8.34987  0.685864
8.36887  0.749561
8.38787  0.476386
8.40688  0.245733
8.42588  0.544966
8.44488  0.744211
8.46389  0.502165
8.48289  0.333419
8.50189  0.48216
8.52089  0.657018
8.5399  0.177722
8.5589  0.286878
8.5779  0.35418
8.59691  0.190541
8.61591  0.0162033
8.63491  -0.161548
8.65392  -0.062011
8.67292  -0.155863
8.69192  -0.129349
8.71093  0.0270641
8.72993  -0.0416026
8.74893  0.00967531
8.76794  0.0732896
8.78694  0.566049
8.80594  0.629924
8.82495  0.882027
8.84395  0.672978
8.86295  0.795822
8.88196  1.01142
8.90096  1.35436
8.91996  2.02244
8.93897  2.98703
8.95797  4.83392
8.97697  7.85872
8.99598  12.4637
9.01498  19.2713
9.03398  31.0171
9.05299  48.9935
9.07199  80.5807
9.09099  131.102
9.11  202.038
9.129  296.164
9.148  395.34
9.16701  474.787
9.18601  506.218
9.20501  488.256
9.22402  442.197
9.24302  397.46
9.26202  352.232
9.28103  313.727
9.30003  292.274
9.31903  280.859
9.33804  276.351
9.35704  269.472
9.37604  249.682
9.39505  221.325
9.41405  188.667
9.43305  158.465
9.45206  130.207
9.47106  104.56
9.49006  82.6167
9.50906  64.4103
9.52807  49.2912
9.54707  37.014
9.56607  27.6589
9.58508  20.521
9.60408  15.1278
9.62308  10.8131
9.64209  7.99445
9.66109  6.03357
9.68009  4.54806
9.6991  3.26941
9.7181  1.54608
9.7371  0.665147
9.75611  0.161726
9.77511  0.228866
9.79411  -0.0560798
9.81312  -0.313613
9.83212  -0.507827
9.85112  -0.518522
9.87013  0.0532427
9.88913  0.481978
9.90813  1.68275
9.92714  2.66723
9.94614  4.82234
9.96514  6.01244
9.98415  7.15148
10.0031  7.58672
10.0222  7.37895
10.0412  6.84075
10.0602  6.80851
10.0792  7.37931
10.0982  9.32813
10.1172  13.1919
10.1362  19.3941
10.1552  27.3887
10.1742  36.4203
10.1932  44.8317
10.2122  48.8576
10.2312  48.8578
10.2502  45.0633
10.2692  40.3088
10.2882  34.5889
10.3072  30.7794
10.3262  27.2677
10.3452  24.0188
10.3642  20.9182
10.3832  18.3234
10.4022  16.3957
10.4212  15.477
10.4402  14.0725
10.4592  13.7217
10.4782  13.6118
10.4972  14.194
10.5162  14.4454
10.5352  15.1844
10.5542  16.5819
10.5732  18.7141
10.5923  21.1241
10.6113  24.0908
10.6303  27.8869
10.6493  33.9878
10.6683  41.4078
10.6873  50.193
10.7063  59.1711
10.7253  65.3233
10.7443  67.7621
10.7633  66.6398
10.7823  63.3175
10.8013  58.0429
10.8203  51.7816
10.8393  44.8894
10.8583  38.2516
10.8773  32.048
10.8963  26.3099
10.9153  21.3063
10.9343  16.6893
10.9533  12.7398
10.9723  9.42971
10.9913  7.42429
11.0103  5.96384
11.0293  4.57613
11.0483  4.04628
11.0673  3.74623
11.0863  3.53511
11.1053  3.68122
11.1243  4.16885
11.1433  4.817
11.1623  4.23987
11.1814  2.88953
11.2004  1.49771
11.2194  0.935474
11.2384  0.802761
11.2574  0.483362
11.2764  0.345857
11.2954  -0.00544265
11.3144  0.210558
11.3334  0.382589
11.3524  0.731491
11.3714  0.374867
11.3904  0.169949
11.4094  0.206154
11.4284  0.107771
11.4474  0.00186384
11.4664  -0.183365
11.4854  -0.264955
11.5044  -0.471662
11.5234  -0.710777
11.5424  -0.651705
11.5614  -0.292917
11.5804  -0.269374
11.5994  -0.238506
11.6184  -0.391118
11.6374  -0.428463
11.6564  0.0736588
11.6754  0.833304
11.6944  1.10354
11.7134  1.30446
11.7324  1.66423
11.7515  2.80043
11.7705  3.79605
11.7895  4.42126
11.8085  4.92512
11.8275  5.66533
11.8465  6.50233
11.8655  7.28179
11.8845  8.26878
11.9035  9.43619
11.9225  11.5259
11.9415  13.8924
11.9605  17.995
11.9795  24.2264
11.9985  33.1652
12.0175  48.6303
12.0365  64.1862
12.0555  92.5635
12.0745  116.272
12.0935  137.347
12.1125  150.944
12.1315  155.734
12.1505  148.848
12.1695  140.573
12.1885  124.35
12.2075  111.246
12.2265  96.4072
12.2455  81.3273
12.2645  68.2679
12.2835  57.1431
12.3025  47.5992
12.3215  40.6279
12.3406  35.4622
12.3596  31.4727
12.3786  28.0129
12.3976  26.0607
12.4166  24.5643
12.4356  23.5049
12.4546  22.7526
12.4736  22.0413
12.4926  21.5774
12.5116  21.4177
12.5306  21.7316
12.5496  21.9281
12.5686  22.1332
12.5876  22.4959
12.6066  22.9083
12.6256  23.1478
12.6446  23.427
12.6636  24.22
12.6826  25.2678
12.7016  26.5832
12.7206  28.5249
12.7396  30.672
12.7586  34.694
12.7776  39.3834
12.7966  46.9092
12.8156  53.8993
12.8346  60.1649
12.8536  64.4139
12.8726  66.907
12.8916  68.1636
12.9106  67.6531
12.9297  66.0153
12.9487  62.0546
12.9677  56.9652
12.9867  50.7821
13.0057  44.128
13.0247  37.3605
13.0437  30.8048
13.0627  24.4784
13.0817  19.1453
13.1007  14.3696
13.1197  10.5784
13.1387  7.62045
13.1577  5.44041
13.1767  3.95565
13.1957  2.8083
13.2147  1.75509
13.2337  0.893635
13.2527  0.0211552
13.2717  -0.192228
13.2907  -0.215334
13.3097  0.0676364
13.3287  0.510384
13.3477  0.78328
13.3667  0.761669
13.3857  0.517875
13.4047  0.0881167
13.4237  -0.195121
13.4427  -0.228283
13.4617  -0.0756629
13.4807  -0.00526368
13.4998  0.0447426
13.5188  0.542627
13.5378  1.20136
13.5568  1.8109
13.5758  2.70799
13.5948  3.56841
13.6138  4.79995
13.6328  5.7838
13.6518  7.08725
13.6708  8.77905
13.6898  10.6453
13.7088  11.4873
13.7278  11.1217
13.7468  8.89875
13.7658  6.91108
13.7848  5.36123
13.8038  4.61604
13.8228  4.04737
13.8418  4.06426
13.8608  3.55259
13.8798  3.4858
13.8988  3.24815
13.9178  2.76541
13.9368  2.02962
13.9558  1.39145
13.9748  0.970156
13.9938  0.702992
14.0128  0.518571
14.0318  0.100612
14.0508  -0.161988
14.0698  0.00429215
14.0889  -0.00390899
14.1079  -0.22477
14.1269  -0.470735
14.1459  -0.371128
14.1649  -0.324137
14.1839  -0.0710902
14.2029  0.19226
14.2219  0.317264
14.2409  0.390197
14.2599  0.492645
14.2789  0.314779
14.2979  0.36381
14.3169  0.185329
14.3359  0.401564
14.3549  0.284662
14.3739  0.140334
14.3929  0.176891
14.4119  0.574623
14.4309  0.676628
14.4499  0.581412
14.4689  0.595437
14.4879  0.538417
14.5069  0.359619
14.5259  0.544523
14.5449  0.789232
14.5639  0.785364
14.5829  0.261163
14.6019  0.0903782
14.6209  -0.0392586
14.6399  0.0942539
14.6589  0.159341
14.678  0.2568
14.697  0.398541
14.716  0.773302
14.735  0.853176
14.754  0.688753
14.773  0.585761
14.792  0.43807
14.811  0.364246
14.83  0.0244254
14.849  0.240131
14.868  0.185659
14.887  -0.0285118
14.906  -0.161541
14.925  0.409302
14.944  0.6054
14.963  0.581146
14.982  0.425893
15.001  0.612288
15.02  0.927824
15.039  1.05954
15.058  1.28096
15.077  1.52675
15.096  1.66563
15.115  1.47218
15.134  1.4768
15.153  1.52058
15.172  1.92509
15.191  2.12919
15.21  2.2545
15.229  2.40509
15.2481  2.74879
15.2671  2.93824
15.2861  3.1813
15.3051  3.34721
15.3241  4.11799
15.3431  5.40637
15.3621  7.03173
15.3811  8.69759
15.4001  11.166
15.4191  13.9308
15.4381  17.6848
15.4571  21.3954
15.4761  25.9681
15.4951  29.8766
15.5141  33.6677
15.5331  36.9749
15.5521  39.3561
15.5711  40.5737
15.5901  40.6895
15.6091  40.6046
15.6281  40.0872
15.6471  41.6964
15.6661  44.1414
15.6851  47.3544
15.7041  54.6275
15.7231  59.124
15.7421  64.4288
15.7611  68.8999
15.7801  70.8529
15.7991  71.2028
15.8181  68.4101
15.8372  65.0264
15.8562  56.8834
15.8752  50.7298
15.8942  43.2986
15.9132  35.539
15.9322  30.7796
15.9512  26.0486
15.9702  22.4107
15.9892  19.0932
16.0082  16.1413
16.0272  13.9096
16.0462  12.0917
16.0652  10.1943
16.0842  8.84167
16.1032  7.57634
16.1222  6.86125
16.1412  6.20062
16.1602  5.70623
16.1792  5.21268
16.1982  4.95128
16.2172  4.32686
16.2362  3.82856
16.2552  3.40948
16.2742  3.07359
16.2932  2.69944
16.3122  2.47176
16.3312  2.19672
16.3502  2.00359
16.3692  1.7201
16.3882  1.55761
16.4073  1.38278
16.4263  1.14012
16.4453  1.04467
16.4643  1.03824
16.4833  1.23653
16.5023  0.920028
16.5213  0.368935
16.5403  0.0816345
16.5593  0.130972
16.5783  0.16319
16.5973  0.290839
16.6163  0.347432
16.6353  0.191323
16.6543  0.623597
16.6733  0.789834
16.6923  1.03187
16.7113  0.58445
16.7303  0.412764
16.7493  0.406879
16.7683  0.732866
16.7873  0.903133
16.8063  0.788976
16.8253  0.665151
16.8443  0.843785
16.8633  1.20257
16.8823  1.54401
16.9013  1.57484
16.9203  1.75503
16.9393  2.25561
16.9583  3.33654
16.9773  4.32298
16.9964  5.11869
17.0154  6.36062
17.0344  8.58089
17.0534  11.4249
17.0724  15.7196
17.0914  22.2877
17.1104  31.8228
17.1294  44.5994
17.1484  56.8861
17.1674  66.7747
17.1864  72.2521
17.2054  74.7793
17.2244  75.066
17.2434  74.5499
17.2624  73.1453
17.2814  70.7739
17.3004  68.3985
17.3194  65.1882
17.3384  62.2817
17.3574  59.1357
17.3764  56.0477
17.3954  53.4063
17.4144  50.8756
17.4334  49.1966
17.4524  48.3897
17.4714  49.3908
17.4904  49.9618
17.5094  49.9431
17.5284  47.5586
17.5474  43.6158
17.5664  37.4962
17.5855  32.0242
17.6045  27.1179
17.6235  23.201
17.6425  20.2812
17.6615  18.1365
17.6805  16.6558
17.6995  15.0183
17.7185  13.7274
17.7375  12.4607
17.7565  11.9102
17.7755  11.2414
17.7945  10.7794
17.8135  10.1415
17.8325  9.51277
17.8515  9.022
17.8705  8.8187
17.8895  8.36628
17.9085  8.10089
17.9275  7.71639
17.9465  7.51425
17.9655  7.22545
17.9845  7.14893
18.0035  7.11776
18.0225  7.524
18.0415  7.91525
18.0605  8.03801
18.0795  8.17505
18.0985  8.2099
18.1175  8.5007
18.1365  9.16634
18.1556  10.4139
18.1746  11.9869
18.1936  14.2543
18.2126  16.9629
18.2316  19.9843
18.2506  22.9023
18.2696  25.4342
18.2886  27.0532
18.3076  28.2558
18.3266  28.6054
18.3456  28.9582
18.3646  29.4795
18.3836  29.1141
18.4026  27.8097
18.4216  26.3294
18.4406  24.431
18.4596  22.1987
18.4786  19.618
18.4976  16.7778
18.5166  13.8527
18.5356  11.5913
18.5546  9.24931
18.5736  6.84605
18.5926  4.64754
18.6116  2.84472
18.6306  1.65889
18.6496  0.820877
18.6686  0.160572
18.6876  -0.0355123
18.7066  0.550888
18.7256  2.31591
18.7447  4.68762
18.7637  7.34894
18.7827  9.3303
18.8017  10.551
18.8207  11.3164
18.8397  13.1742
18.8587  14.6279
18.8777  15.2564
18.8967  13.8015
18.9157  12.5654
18.9347  13.1623
18.9537  12.803
18.9727  12.4646
18.9917  9.99964
19.0107  9.90725
19.0297  9.02611
19.0487  8.67773
19.0677  7.05061
19.0867  5.63467
19.1057  4.92695
19.1247  5.06483
19.1437  6.10612
19.1627  6.70888
19.1817  6.78954
19.2007  6.88715
19.2197  5.93416
19.2387  5.06777
19.2577  3.9061
19.2767  3.18177
19.2957  2.44601
19.3148  1.82606
19.3338  1.23463
19.3528  0.60194
19.3718  0.114543
19.3908  -0.113281
19.4098  -0.194247
19.4288  -0.278067
19.4478  -0.276123
19.4668  -0.290177
19.4858  -0.356861
19.5048  -0.296975
19.5238  -0.194695
19.5428  -0.176441
19.5618  -0.0865853
19.5808  0.0322665
19.5998  -0.0575155
19.6188  0.0841031
19.6378  0.198551
19.6568  -0.00710055
19.6758  -0.140196
19.6948  -0.201103
19.7138  0.180796
19.7328  0.447948
19.7518  0.566701
19.7708  0.393954
19.7898  0.591862
19.8088  0.990588
19.8278  1.78457
19.8468  1.98133
19.8658  2.58082
19.8848  3.01098
19.9039  3.67337
19.9229  4.3515
19.9419  4.61831
19.9609  4.88527
19.9799  4.95375
19.9989  4.13276
20.0179  3.90654
20.0369  2.93415
20.0559  2.62553
20.0749  2.02117
20.0939  1.97433
20.1129  1.85795
20.1319  1.82362
20.1509  1.58025
20.1699  1.28098
20.1889  1.22392
20.2079  1.11767
20.2269  1.09941
20.2459  1.02423
20.2649  1.22404
20.2839  1.83511
20.3029  2.36733
20.3219  3.14577
20.3409  4.17988
20.3599  5.44405
20.3789  7.32027
20.3979  8.77851
20.4169  10.2116
20.4359  11.4596
20.4549  12.0114
20.4739  12.3658
20.493  11.827
20.512  10.863
20.531  9.82973
20.55  8.37583
20.569  7.15274
20.588  5.73603
20.607  4.79894
20.626  3.54228
20.645  2.64062
20.664  2.30822
20.683  2.03573
20.702  1.67375
20.721  1.03488
20.74  0.787654
20.759  0.440234
20.778  0.222679
20.797  0.144282
20.816  -0.0355417
20.835  -0.0776987
20.854  0.185913
20.873  0.398599
20.892  0.581091
20.911  0.664861
20.93  0.60361
20.949  0.844353
20.968  1.40388
20.987  2.30141
21.006  2.75133
21.025  2.8785
21.044  2.87749
21.0631  3.11519
21.0821  2.76434
21.1011  2.03011
21.1201  1.2408
21.1391  0.717582
21.1581  0.407494
21.1771  0.296412
21.1961  0.408549
21.2151  0.340443
21.2341  0.25568
21.2531  0.29992
21.2721  0.428143
21.2911  0.366332
21.3101  0.150096
21.3291  -0.206043
21.3481  -0.141973
21.3671  -0.0231854
21.3861  0.16603
21.4051  0.291533
21.4241  0.303612
21.4431  0.294714
21.4621  0.190457
21.4811  0.124044
21.5001  -0.0286834
21.5191  -0.00416001
21.5381  0.303682
21.5571  0.485959
21.5761  0.368695
21.5951  0.209341
21.6141  0.0291918
21.6331  0.214809
21.6522  0.288597
21.6712  0.11046
21.6902  0.0240411
21.7092  0.1313
21.7282  0.197118
21.7472  0.209506
21.7662  0.183724
21.7852  0.0119756
21.8042  -0.0906862
21.8232  -0.210649
21.8422  -0.121081
21.8612  0.000910935
21.8802  0.31469
21.8992  0.346785
21.9182  0.0574684
21.9372  -0.249565
21.9562  -0.26895
21.9752  -0.116173
21.9942  0.123873
22.0132  0.258658
22.0322  -0.141057