File: data/processed/Run2_XRD/30_RuMoB2_470psi_noRuby_S_P1_C1_D1w_187.dat
2.93393  0.423237
2.95294  0.58024
2.97194  0.971699
2.99094  0.964078
3.00995  0.51739
3.02895  0.615778
3.04795  0.569931
3.06696  0.638254
3.08596  0.173974
3.10496  0.185615
3.12397  0.600418
3.14297  0.781968
3.16197  1.13354
3.18098  0.610079
3.19998  0.837518
3.21898  0.749354
3.23799  1.08042
3.25699  1.32981
3.27599  0.6774
3.295  0.946293
3.314  0.953223
3.333  0.899028
3.35201  0.752148
3.37101  0.401898
3.39001  0.931786
3.40902  1.45957
3.42802  1.26765
3.44702  0.837327
3.46603  0.594023
3.48503  0.990447
3.50403  1.06136
3.52304  0.999875
3.54204  1.72366
3.56104  2.7813
3.58005  4.55305
3.59905  6.19305
3.61805  8.41491
3.63706  9.98444
3.65606  9.92423
3.67506  8.27947
3.69407  6.23273
3.71307  4.37629
3.73207  3.02203
3.75108  1.67385
3.77008  1.15274
3.78908  1.06211
3.80808  0.468486
3.82709  0.424143
3.84609  1.21959
3.86509  1.44881
3.8841  0.616712
3.9031  0.114712
3.9221  0.421194
3.94111  0.95816
3.96011  0.909381
3.97911  0.625064
3.99812  0.629386
4.01712  0.768013
4.03612  0.580684
4.05513  0.58455
4.07413  0.180709
4.09313  0.0944252
4.11214  0.157053
4.13114  0.693856
4.15014  1.24587
4.16915  1.44317
4.18815  0.905069
4.20715  0.415322
4.22616  0.561936
4.24516  0.536502
4.26416  0.661018
4.28317  0.0971704
4.30217  0.414241
4.32117  0.234272
4.34018  0.230284
4.35918  0.463804
4.37818  0.719413
4.39719  1.0467
4.41619  0.984126
4.43519  0.48033
4.4542  0.510503
4.4732  0.495085
4.4922  0.230877
4.51121  1.01164
4.53021  1.2207
4.54921  1.47891
4.56822  0.605843
4.58722  0.852373
4.60622  0.727643
4.62523  0.3673
4.64423  -0.197006
4.66323  -0.270211
4.68224  0.101719
4.70124  0.592158
4.72024  0.995158
4.73924  1.20013
4.75825  1.67292
4.77725  1.4024
4.79625  1.19222
4.81526  0.680884
4.83426  0.535291
4.85326  0.432165
4.87227  0.674299
4.89127  0.323343
4.91027  0.299076
4.92928  0.265316
4.94828  0.235855
4.96728  0.423476
4.98629  0.559546
5.00529  0.669012
5.02429  0.69203
5.0433  0.47752
5.0623  0.316631
5.0813  0.153903
5.10031  0.402161
5.11931  0.418019
5.13831  0.949576
5.15732  0.932059
5.17632  0.603746
5.19532  0.667012
5.21433  0.761823
5.23333  0.836255
5.25233  1.3772
5.27134  1.23359
5.29034  1.20249
5.30934  0.651404
5.32835  0.437877
5.34735  0.279461
5.36635  0.380271
5.38536  0.274244
5.40436  0.319382
5.42336  0.614996
5.44237  1.17316
5.46137  1.04759
5.48037  1.18011
5.49938  1.09854
5.51838  1.06229
5.53738  1.02642
5.55639  1.00245
5.57539  1.29033
5.59439  0.649914
5.6134  0.17424
5.6324  -0.248642
5.6514  -0.0130891
5.67041  0.284589
5.68941  0.384744
5.70841  0.672273
5.72741  0.541741
5.74642  0.752823
5.76542  0.441502
5.78442  1.17572
5.80343  1.54919
5.82243  1.11673
5.84143  0.745617
5.86044  0.174124
5.87944  0.308443
5.89844  -0.0923599
5.91745  -0.129013
5.93645  0.278735
5.95545  1.22666
5.97446  2.01256
5.99346  2.09383
6.01246  1.58019
6.03147  1.25153
6.05047  1.08985
6.06947  0.977392
6.08848  1.23854
6.10748  1.24524
6.12648  1.25636
6.14549  0.701024
6.16449  0.282254
6.18349  0.389342
6.2025  0.404933
6.2215  0.529479
6.2405  0.533932
6.25951  0.449564
6.27851  0.191783
6.29751  0.118698
6.31652  -0.0834849
6.33552  0.173269
6.35452  0.791607
6.37353  0.706198
6.39253  0.479742
6.41153  0.530068
6.43054  0.793722
6.44954  0.945237
6.46854  0.787302
6.48755  0.32084
6.50655  0.106019
6.52555  0.327965
6.54456  0.985699
6.56356  1.10891
6.58256  1.30869
6.60157  1.24458
6.62057  2.10135
6.63957  2.60623
6.65857  2.86337
6.67758  2.65144
6.69658  1.92399
6.71558  0.984137
6.73459  0.0276599
6.75359  -0.0852579
6.77259  -0.165068
6.7916  -0.00470053
6.8106  -0.406727
6.8296  -0.271894
6.84861  -0.128066
6.86761  0.251545
6.88661  0.369836
6.90562  0.184155
6.92462  0.10977
6.94362  0.670745
6.96263  1.38013
6.98163  2.01691
7.00063  2.40149
7.01964  2.64865
7.03864  3.5239
7.05764  4.15995
7.07665  4.95992
7.09565  5.34917
7.11465  6.38365
7.13366  7.97829
7.15266  9.58769
7.17166  12.3647
7.19067  14.728
7.20967  19.495
7.22867  24.8168
7.24768  30.815
7.26668  36.9807
7.28568  40.6593
7.30469  41.4233
7.32369  39.962
7.34269  36.7317
7.3617  32.5343
7.3807  28.7589
7.3997  25.0623
7.41871  22.3884
7.43771  20.676
7.45671  18.6927
7.47572  17.1137
7.49472  16.2161
7.51372  15.6086
7.53273  14.6324
7.55173  14.2431
7.57073  14.0854
7.58973  13.665
7.60874  13.1012
7.62774  12.9208
7.64674  12.7982
7.66575  12.6011
7.68475  12.1956
7.70375  12.0646
7.72276  12.1557
7.74176  12.6919
7.76076  12.7293
7.77977  12.2288
7.79877  11.7008
7.81777  10.7033
7.83678  9.52481
7.85578  8.59797
7.87478  7.4832
7.89379  6.25722
7.91279  5.13827
7.93179  4.36368
7.9508  3.85177
7.9698  3.8273
7.9888  3.62808
8.00781  3.30874
8.02681  2.56491
8.04581  1.85471
8.06482  1.67064
8.08382  1.58695
8.10282  1.53465
8.12183  1.85376
8.14083  1.83506
8.15983  1.44374
8.17884  1.1896
8.19784  0.98688
8.21684  1.22939
8.23585  0.993519
8.25485  0.834765
8.27385  0.4465
8.29286  0.109864
8.31186  0.15812
8.33086  0.360448
8.34987  0.902654
8.36887  0.803087
8.38787  0.868067
8.40688  0.675561
8.42588  0.532719
8.44488  0.359116
8.46389  -0.167892
8.48289  -0.235269
8.50189  -0.203683
8.52089  0.16494
8.5399  0.188355
8.5589  0.370144
8.5779  0.756051
8.59691  0.609169
8.61591  0.589032
8.63491  0.489148
8.65392  0.337574
8.67292  0.376582
8.69192  0.551482
8.71093  0.495647
8.72993  0.0422514
8.74893  -0.392999
8.76794  -0.436087
8.78694  -0.402693
8.80594  -0.531966
8.82495  -0.377555
8.84395  -0.289581
8.86295  -0.237476
8.88196  -0.0365976
8.90096  0.458457
8.91996  0.650026
8.93897  0.319312
8.95797  -0.115423
8.97697  0.00673353
8.99598  -0.113618
9.01498  0.0651293
9.03398  0.305394
9.05299  0.576883
9.07199  0.574251
9.09099  0.630454
9.11  0.961977
9.129  1.48163
9.148  1.89051
9.16701  2.1885
9.18601  2.14771
9.20501  2.2886
9.22402  2.79805
9.24302  3.54858
9.26202  3.92953
9.28103  5.08191
9.30003  6.21139
9.31903  7.99707
9.33804  9.56175
9.35704  11.8215
9.37604  13.8235
9.39505  16.4599
9.41405  20.2893
9.43305  24.6027
9.45206  30.3313
9.47106  37.5726
9.49006  45.8948
9.50906  58.4184
9.52807  73.553
9.54707  98.2115
9.56607  126.766
9.58508  164.256
9.60408  206.112
9.62308  248.506
9.64209  293.869
9.66109  320.321
9.68009  341.886
9.6991  342.108
9.7181  331.091
9.7371  311.561
9.75611  290.393
9.77511  264.489
9.79411  241.776
9.81312  219.265
9.83212  199.952
9.85112  183.266
9.87013  167.149
9.88913  153.243
9.90813  137.421
9.92714  123.654
9.94614  110.931
9.96514  99.7915
9.98415  90.7366
10.0031  81.9175
10.0222  75.262
10.0412  69.1094
10.0602  63.9728
10.0792  59.2517
10.0982  54.6699
10.1172  50.502
10.1362  46.6084
10.1552  42.9919
10.1742  39.1187
10.1932  36.0723
10.2122  32.9402
10.2312  29.7993
10.2502  26.5983
10.2692  23.1545
10.2882  20.1969
10.3072  17.5082
10.3262  15.2559
10.3452  12.9755
10.3642  11.0877
10.3832  9.07816
10.4022  7.25338
10.4212  5.79159
10.4402  4.73375
10.4592  3.9992
10.4782  3.1362
10.4972  1.97981
10.5162  1.29732
10.5352  1.25601
10.5542  0.756552
10.5732  0.0562258
10.5923  -0.349362
10.6113  -0.480958
10.6303  -0.0869826
10.6493  -0.359857
10.6683  -0.654567
10.6873  -1.07315
10.7063  -0.937672
10.7253  -0.544685
10.7443  -0.400318
10.7633  -0.0437541
10.7823  0.0887847
10.8013  0.255328
10.8203  0.213818
10.8393  0.632402
10.8583  0.969523
10.8773  1.71521
10.8963  2.52047
10.9153  3.02178
10.9343  3.14063
10.9533  2.95859
10.9723  2.11302
10.9913  1.82891
11.0103  1.70159
11.0293  1.49747
11.0483  0.824772
11.0673  0.101701
11.0863  0.0364914
11.1053  0.0786082
11.1243  0.302775
11.1433  0.0601585
11.1623  -0.163008
11.1814  -0.00271878
11.2004  0.263605
11.2194  0.68141
11.2384  0.735569
11.2574  0.795086
11.2764  0.806297
11.2954  0.565304
11.3144  0.511537
11.3334  0.214189
11.3524  0.23945
11.3714  0.582805
11.3904  1.02027
11.4094  0.927552
11.4284  0.553545
11.4474  0.470849
11.4664  0.804789
11.4854  1.20516
11.5044  1.30037
11.5234  0.674452
11.5424  0.401383
11.5614  0.400718
11.5804  0.378245
11.5994  0.522138
11.6184  0.557011
11.6374  0.897953
11.6564  0.736917
11.6754  1.11126
11.6944  0.870055
11.7134  0.437481
11.7324  0.0512525
11.7515  -0.140207
11.7705  -0.0970788
11.7895  -0.537488
11.8085  -0.673856
11.8275  -0.240141
11.8465  0.137182
11.8655  -0.0909688
11.8845  -0.455535
11.9035  -0.265651
11.9225  0.106574
11.9415  -0.0644179
11.9605  -0.398332
11.9795  -0.463998
11.9985  -0.170697
12.0175  -0.249988
12.0365  -0.0376625
12.0555  0.271008
12.0745  0.791678
12.0935  0.999743
12.1125  1.50893
12.1315  1.99489
12.1505  2.82948
12.1695  3.48152
12.1885  4.57453
12.2075  5.91249
12.2265  7.53738
12.2455  8.82219
12.2645  10.7205
12.2835  12.637
12.3025  15.4629
12.3215  18.4283
12.3406  22.2177
12.3596  27.2227
12.3786  33.2355
12.3976  40.3338
12.4166  50.1497
12.4356  62.1436
12.4546  78.0833
12.4736  98.2763
12.4926  122.718
12.5116  156.245
12.5306  194.038
12.5496  243.303
12.5686  298.327
12.5876  361.237
12.6066  422.366
12.6256  478.551
12.6446  522.433
12.6636  548.128
12.6826  558.292
12.7016  550.801
12.7206  524.424
12.7396  489.577
12.7586  444.781
12.7776  395.193
12.7966  344.904
12.8156  294.4
12.8346  247.659
12.8536  203.456
12.8726  163.793
12.8916  131.608
12.9106  105.243
12.9297  84.6732
12.9487  68.5798
12.9677  55.8516
12.9867  46.7134
13.0057  39.1283
13.0247  33.4607
13.0437  28.9822
13.0627  25.1542
13.0817  22.2295
13.1007  19.5244
13.1197  17.4621
13.1387  15.6865
13.1577  14.5798
13.1767  12.9743
13.1957  11.6621
13.2147  10.274
13.2337  9.22004
13.2527  7.90346
13.2717  6.80546
13.2907  5.96741
13.3097  5.67111
13.3287  5.11974
13.3477  4.73845
13.3667  3.9897
13.3857  3.62075
13.4047  3.12404
13.4237  2.75621
13.4427  2.23516
13.4617  2.23403
13.4807  2.26729
13.4998  2.04837
13.5188  1.80846
13.5378  1.81131
13.5568  1.96003
13.5758  2.07174
13.5948  2.29947
13.6138  2.35085
13.6328  2.11169
13.6518  1.70863
13.6708  1.71406
13.6898  1.51542
13.7088  1.42371
13.7278  1.34349
13.7468  1.42673
13.7658  1.1996
13.7848  1.02405
13.8038  0.842686
13.8228  0.606368
13.8418  0.690457
13.8608  0.284559
13.8798  0.589328
13.8988  0.494401
13.9178  0.718934
13.9368  0.338991
13.9558  0.222681
13.9748  0.045529
13.9938  -0.219799
14.0128  -0.334371
14.0318  -0.389825
14.0508  -0.249938
14.0698  -0.217665
14.0889  -0.183648
14.1079  -0.150816
14.1269  -0.437916
14.1459  -0.524334
14.1649  -0.447904
14.1839  -0.570821
14.2029  -0.346915
14.2219  0.0495549
14.2409  0.391252
14.2599  0.427889
14.2789  0.33505
14.2979  0.28041
14.3169  0.0279585
14.3359  0.367634
14.3549  0.354922
14.3739  0.740022
14.3929  1.2621
14.4119  2.03063
14.4309  2.57247
14.4499  3.11513
14.4689  4.07329
14.4879  4.97816
14.5069  6.02315
14.5259  7.17383
14.5449  8.41866
14.5639  9.48861
14.5829  9.89025
14.6019  9.36101
14.6209  8.46525
14.6399  7.68635
14.6589  7.20553
14.678  6.54851
14.697  5.56464
14.716  4.46928
14.735  3.94616
14.754  3.49305
14.773  3.22234
14.792  2.75211
14.811  2.55154
14.83  2.56352
14.849  2.22584
14.868  1.64927
14.887  1.02477
14.906  1.13505
14.925  1.09048
14.944  0.969011
14.963  0.673771
14.982  0.710642
15.001  0.620481
15.02  0.443129
15.039  0.676302
15.058  0.547231
15.077  0.50692
15.096  0.525243
15.115  0.636261
15.134  0.536568
15.153  0.648796
15.172  0.81521
15.191  0.614601
15.21  0.510315
15.229  0.736117
15.2481  0.695933
15.2671  0.531564
15.2861  0.654462
15.3051  0.775866
15.3241  0.931602
15.3431  0.636333
15.3621  0.484836
15.3811  0.061549
15.4001  0.380714
15.4191  0.942651
15.4381  1.48276
15.4571  1.43702
15.4761  1.4099
15.4951  1.44367
15.5141  1.68905
15.5331  1.55647
15.5521  1.39029
15.5711  1.46802
15.5901  1.37502
15.6091  1.43303
15.6281  1.32876
15.6471  1.61454
15.6661  1.99673
15.6851  2.18459
15.7041  2.3045
15.7231  2.10171
15.7421  1.81442
15.7611  1.29598
15.7801  1.00219
15.7991  1.13648
15.8181  0.916693
15.8372  0.768158
15.8562  0.467147
15.8752  0.525674
15.8942  0.770239
15.9132  0.878246
15.9322  0.780628
15.9512  0.440445
15.9702  0.362735
15.9892  0.297963
16.0082  0.116584
16.0272  0.181539
16.0462  0.337734
16.0652  0.512711
16.0842  0.284875
16.1032  -0.138152
16.1222  -0.053248
16.1412  0.349447
16.1602  0.446093
16.1792  -0.0396128
16.1982  -0.0304246
16.2172  -0.092268
16.2362  0.0474052
16.2552  0.126677
16.2742  0.342422
16.2932  0.584678
16.3122  0.628397
16.3312  0.952866
16.3502  1.53392
16.3692  1.86106
16.3882  2.07392
16.4073  2.18075
16.4263  2.62925
16.4453  3.34401
16.4643  4.17055
16.4833  4.69805
16.5023  5.24206
16.5213  6.3125
16.5403  7.30529
16.5593  8.14522
16.5783  9.23997
16.5973  10.3186
16.6163  11.687
16.6353  13.2535
16.6543  15.2276
16.6733  17.237
16.6923  19.3918
16.7113  20.8611
16.7303  22.4095
16.7493  24.0152
16.7683  25.4781
16.7873  26.7478
16.8063  27.9836
16.8253  29.307
16.8443  29.9309
16.8633  30.4325
16.8823  30.7588
16.9013  31.0128
16.9203  30.7798
16.9393  30.1226
16.9583  29.6076
16.9773  29.6232
16.9964  29.5272
17.0154  29.2127
17.0344  28.9435
17.0534  28.0385
17.0724  26.9094
17.0914  25.7356
17.1104  24.7899
17.1294  23.5334
17.1484  22.29
17.1674  20.6481
17.1864  19.975
17.2054  18.7744
17.2244  18.1801
17.2434  17.2561
17.2624  16.7319
17.2814  16.0083
17.3004  15.2654
17.3194  14.3283
17.3384  13.5642
17.3574  12.7723
17.3764  12.7769
17.3954  12.7072
17.4144  12.1711
17.4334  11.1134
17.4524  10.1424
17.4714  9.56785
17.4904  8.82975
17.5094  7.83356
17.5284  6.86891
17.5474  6.16085
17.5664  5.18312
17.5855  4.35128
17.6045  4.05324
17.6235  3.71328
17.6425  3.14543
17.6615  2.89751
17.6805  2.77229
17.6995  2.63683
17.7185  2.42525
17.7375  2.24015
17.7565  1.91465
17.7755  1.53263
17.7945  1.27263
17.8135  1.31823
17.8325  1.64075
17.8515  1.73579
17.8705  1.71475
17.8895  1.43971
17.9085  1.41385
17.9275  1.5473
17.9465  1.69819
17.9655  1.71913
17.9845  1.62017
18.0035  1.57806
18.0225  1.69106
18.0415  1.70394
18.0605  1.80844
18.0795  1.96137
18.0985  2.12872
18.1175  2.19952
18.1365  2.11324
18.1556  2.22107
18.1746  2.54094
18.1936  2.87107
18.2126  3.18398
18.2316  3.52239
18.2506  3.56381
18.2696  3.81772
18.2886  3.98318
18.3076  4.3003
18.3266  4.47424
18.3456  4.63233
18.3646  4.91338
18.3836  5.39937
18.4026  6.15179
18.4216  7.04487
18.4406  7.91812
18.4596  9.37337
18.4786  11.4107
18.4976  13.5803
18.5166  15.6035
18.5356  17.1608
18.5546  19.4719
18.5736  21.7094
18.5926  23.9137
18.6116  25.8688
18.6306  28.4341
18.6496  30.4659
18.6686  32.1712
18.6876  33.338
18.7066  34.2934
18.7256  34.8769
18.7447  35.1163
18.7637  35.1315
18.7827  34.6662
18.8017  33.7502
18.8207  32.7938
18.8397  31.698
18.8587  30.3332
18.8777  28.5879
18.8967  26.6797
18.9157  24.7496
18.9347  22.4179
18.9537  20.1896
18.9727  18.1348
18.9917  15.9069
19.0107  13.3718
19.0297  10.8433
19.0487  8.6983
19.0677  7.01129
19.0867  5.52759
19.1057  4.08186
19.1247  2.87703
19.1437  1.88103
19.1627  0.896257
19.1817  0.452768
19.2007  -0.0190711
19.2197  0.0786963
19.2387  0.152328
19.2577  0.896905
19.2767  1.20331
19.2957  1.56374
19.3148  1.54576
19.3338  1.67296
19.3528  1.47165
19.3718  1.62262
19.3908  1.55713
19.4098  1.62259
19.4288  1.31582
19.4478  0.963717
19.4668  0.943207
19.4858  0.875573
19.5048  0.75025
19.5238  0.478684
19.5428  0.137605
19.5618  -0.098084
19.5808  -0.0473446
19.5998  -0.0875848
19.6188  -0.19331
19.6378  -0.0930117
19.6568  -0.0150284
19.6758  -0.212173
19.6948  0.0105206
19.7138  0.399085
19.7328  0.649308
19.7518  0.746286
19.7708  0.885224
19.7898  0.967578
19.8088  0.951396
19.8278  0.671587
19.8468  0.4968
19.8658  0.442949
19.8848  0.550043
19.9039  0.21817
19.9229  -0.0297835
19.9419  -0.0258825
19.9609  0.392852
19.9799  0.474028
19.9989  0.0430052
20.0179  -0.158497
20.0369  -0.0329873
20.0559  0.274297
20.0749  0.439502
20.0939  0.54565
20.1129  0.427536
20.1319  0.280596
20.1509  -0.0347517
20.1699  -0.0420454
20.1889  -0.223559
20.2079  0.0250874
20.2269  0.293734
20.2459  0.339579
20.2649  0.3636
20.2839  0.364275
20.3029  0.247504
20.3219  -0.0299237
20.3409  -0.070998
20.3599  0.0971146
20.3789  0.240799
20.3979  0.388928
20.4169  0.235624
20.4359  0.0106266
20.4549  -0.0210808
20.4739  0.055127
20.493  0.120227
20.512  -0.0986069
20.531  -0.0717963
20.55  0.0441166
20.569  0.23203
20.588  0.197605
20.607  0.142487
20.626  -0.0397578
20.645  -0.0393892
20.664  -0.113988
20.683  -0.0145493
20.702  -0.0582048
20.721  -0.00564641
20.74  0.33394
20.759  0.381939
20.778  0.358354
20.797  0.265499
20.816  0.515141
20.835  0.59139
20.854  0.679384
20.873  0.540938
20.892  0.325623
20.911  0.302708
20.93  0.445428
20.949  0.716155
20.968  0.8122
20.987  0.664745
21.006  0.419159
21.025  0.454188
21.044  0.612127
21.0631  0.409687
21.0821  0.279625
21.1011  0.28836
21.1201  0.372785
21.1391  0.408482
21.1581  0.626664
21.1771  0.479285
21.1961  0.510012
21.2151  0.498052
21.2341  0.799966
21.2531  0.787654
21.2721  0.695071
21.2911  0.662001
21.3101  0.515252
21.3291  0.250675
21.3481  0.00162049
21.3671  0.235301
21.3861  0.329016
21.4051  0.195603
21.4241  -0.0299418
21.4431  -0.144842
21.4621  0.0725484
21.4811  0.171845
21.5001  0.297481
21.5191  0.0929642
21.5381  0.178489
21.5571  0.216343
21.5761  0.34781
21.5951  0.191586
21.6141  0.227701
21.6331  0.28544
21.6522  0.293984
21.6712  0.269945
21.6902  0.197894
21.7092  0.227446
21.7282  0.10989
21.7472  0.137866
21.7662  0.0303512
21.7852  -0.0122849
21.8042  -0.0739938
21.8232  0.0235564
21.8422  -0.00205013
21.8612  -0.138901
21.8802  -0.10701
21.8992  0.030265
21.9182  -0.0534099
21.9372  0.135714
21.9562  0.118672
21.9752  0.101597
21.9942  -0.154282
22.0132  -0.113166
22.0322  0.0844815