File: data/processed/Run2_XRD/3_ReMoB2_400psi_13p8GPa_S_P1_C1_D1w_025.dat
2.93393  0.631559
2.95294  0.267215
2.97194  0.772999
2.99094  0.661273
3.00995  0.803658
3.02895  0.691007
3.04795  0.423847
3.06696  -0.295086
3.08596  0.0418209
3.10496  0.559532
3.12397  1.17156
3.14297  1.39109
3.16197  1.7614
3.18098  2.04613
3.19998  1.99225
3.21898  1.58034
3.23799  1.65214
3.25699  2.1543
3.27599  2.19262
3.295  2.35312
3.314  2.69815
3.333  3.68244
3.35201  5.6654
3.37101  9.14144
3.39001  14.8325
3.40902  22.5445
3.42802  31.677
3.44702  38.4388
3.46603  37.0289
3.48503  30.183
3.50403  20.8928
3.52304  12.7108
3.54204  7.37339
3.56104  4.06604
3.58005  2.96252
3.59905  1.97339
3.61805  1.48967
3.63706  0.900582
3.65606  0.760733
3.67506  0.916152
3.69407  1.32188
3.71307  1.59536
3.73207  1.7406
3.75108  1.42581
3.77008  1.29675
3.78908  1.25621
3.80808  0.864809
3.82709  0.494409
3.84609  0.674316
3.86509  0.808064
3.8841  1.1085
3.9031  1.52818
3.9221  1.38913
3.94111  1.15354
3.96011  0.689979
3.97911  0.554389
3.99812  0.820286
4.01712  1.02137
4.03612  1.20315
4.05513  0.895285
4.07413  -0.0957007
4.09313  -0.0868941
4.11214  0.269392
4.13114  0.835501
4.15014  0.618304
4.16915  0.52334
4.18815  0.357549
4.20715  0.332156
4.22616  0.40481
4.24516  0.479132
4.26416  0.0317627
4.28317  0.141095
4.30217  0.331364
4.32117  0.519564
4.34018  0.329285
4.35918  -0.0359218
4.37818  0.0207785
4.39719  0.792697
4.41619  1.0765
4.43519  1.15636
4.4542  0.585486
4.4732  0.725869
4.4922  0.727879
4.51121  0.921665
4.53021  0.578113
4.54921  0.646218
4.56822  0.348432
4.58722  0.285635
4.60622  0.558752
4.62523  1.00859
4.64423  0.991547
4.66323  0.848772
4.68224  0.351919
4.70124  0.112695
4.72024  0.392746
4.73924  0.864864
4.75825  0.527676
4.77725  -0.251576
4.79625  -0.142848
4.81526  -0.0266904
4.83426  0.38573
4.85326  0.321006
4.87227  0.402563
4.89127  0.472021
4.91027  0.305139
4.92928  0.411099
4.94828  0.179621
4.96728  0.212787
4.98629  0.185255
5.00529  0.220254
5.02429  0.0682325
5.0433  0.223903
5.0623  0.187786
5.0813  0.192024
5.10031  0.178734
5.11931  0.0330743
5.13831  0.170693
5.15732  0.332443
5.17632  -0.0283646
5.19532  0.0114886
5.21433  0.254068
5.23333  0.519493
5.25233  0.917714
5.27134  1.38977
5.29034  1.39061
5.30934  0.824428
5.32835  0.154308
5.34735  0.111415
5.36635  0.258376
5.38536  0.00580773
5.40436  -0.261775
5.42336  -0.263056
5.44237  0.0333296
5.46137  0.0975981
5.48037  0.0194438
5.49938  0.00303404
5.51838  0.0051903
5.53738  0.151966
5.55639  0.358151
5.57539  1.04236
5.59439  1.86032
5.6134  2.7534
5.6324  3.84031
5.6514  6.07876
5.67041  8.75983
5.68941  10.8199
5.70841  11.8299
5.72741  11.6281
5.74642  10.7425
5.76542  9.35024
5.78442  7.73175
5.80343  6.03417
5.82243  4.54574
5.84143  3.19292
5.86044  2.45402
5.87944  1.94245
5.89844  2.05434
5.91745  1.54445
5.93645  0.945309
5.95545  0.880541
5.97446  1.37386
5.99346  1.70631
6.01246  1.87126
6.03147  1.61895
6.05047  1.29746
6.06947  0.949828
6.08848  0.679376
6.10748  0.645335
6.12648  0.843152
6.14549  1.23661
6.16449  2.19792
6.18349  3.14128
6.2025  4.19168
6.2215  5.38605
6.2405  7.55066
6.25951  11.9156
6.27851  17.7459
6.29751  27.7864
6.31652  35.377
6.33552  41.4378
6.35452  39.9644
6.37353  33.3731
6.39253  23.2773
6.41153  16.0018
6.43054  10.332
6.44954  8.91659
6.46854  8.46208
6.48755  9.43625
6.50655  10.1505
6.52555  10.2614
6.54456  9.56861
6.56356  8.32894
6.58256  6.14976
6.60157  4.51809
6.62057  3.67519
6.63957  3.24718
6.65857  2.86784
6.67758  2.96804
6.69658  4.20643
6.71558  6.24308
6.73459  9.49397
6.75359  14.5316
6.77259  23.3306
6.7916  35.015
6.8106  49.2137
6.8296  62.1611
6.84861  72.9152
6.86761  81.433
6.88661  84.0529
6.90562  87.2877
6.92462  82.782
6.94362  74.5161
6.96263  60.2805
6.98163  47.3992
7.00063  34.4721
7.01964  25.4855
7.03864  17.1703
7.05764  12.0131
7.07665  8.31953
7.09565  5.78747
7.11465  4.1116
7.13366  2.91789
7.15266  2.31337
7.17166  1.73322
7.19067  0.958279
7.20967  0.515046
7.22867  0.0170901
7.24768  -0.207503
7.26668  -0.118678
7.28568  -0.0746408
7.30469  0.272403
7.32369  0.568782
7.34269  0.568498
7.3617  0.159686
7.3807  0.161732
7.3997  0.715198
7.41871  1.01903
7.43771  1.34426
7.45671  0.996284
7.47572  0.58722
7.49472  -0.00863786
7.51372  0.224031
7.53273  0.899213
7.55173  1.10897
7.57073  0.74079
7.58973  0.696399
7.60874  1.12781
7.62774  1.26773
7.64674  1.2222
7.66575  1.20466
7.68475  1.2661
7.70375  1.56661
7.72276  1.27148
7.74176  1.17881
7.76076  0.932306
7.77977  0.671907
7.79877  0.432052
7.81777  0.18626
7.83678  0.0687029
7.85578  0.254557
7.87478  0.488082
7.89379  0.325466
7.91279  -0.0438158
7.93179  -0.100261
7.9508  0.403789
7.9698  0.772667
7.9888  0.872057
8.00781  0.792855
8.02681  0.896196
8.04581  0.947096
8.06482  1.16294
8.08382  0.728968
8.10282  0.801775
8.12183  0.465333
8.14083  0.680608
8.15983  0.627391
8.17884  0.400802
8.19784  -0.0739269
8.21684  -0.286754
8.23585  -0.146901
8.25485  0.243486
8.27385  0.403984
8.29286  0.529837
8.31186  0.453275
8.33086  0.186194
8.34987  0.198232
8.36887  0.36561
8.38787  0.485625
8.40688  0.496398
8.42588  0.409591
8.44488  0.554876
8.46389  0.608403
8.48289  0.664048
8.50189  0.4481
8.52089  0.835837
8.5399  0.885641
8.5589  0.9732
8.5779  0.894843
8.59691  0.694912
8.61591  0.363261
8.63491  -0.0777563
8.65392  -0.0245058
8.67292  -0.0702848
8.69192  0.162004
8.71093  0.0931392
8.72993  -0.0193289
8.74893  -0.175058
8.76794  -0.153591
8.78694  -0.0592763
8.80594  0.309435
8.82495  0.445005
8.84395  0.260492
8.86295  0.0608616
8.88196  0.539478
8.90096  1.16956
8.91996  1.94613
8.93897  3.02036
8.95797  4.77368
8.97697  7.31366
8.99598  10.9779
9.01498  16.8068
9.03398  25.8951
9.05299  39.1534
9.07199  59.2311
9.09099  88.5396
9.11  130.748
9.129  184.15
9.148  252.926
9.16701  335.323
9.18601  422.097
9.20501  510.3
9.22402  618.776
9.24302  690.073
9.26202  708.189
9.28103  649.121
9.30003  565.393
9.31903  475.776
9.33804  401.488
9.35704  353.942
9.37604  316.142
9.39505  303.291
9.41405  296.639
9.43305  288.353
9.45206  282.425
9.47106  264.793
9.49006  238.214
9.50906  199.499
9.52807  159.275
9.54707  121.412
9.56607  91.0111
9.58508  66.6211
9.60408  48.8028
9.62308  35.1794
9.64209  25.604
9.66109  18.6749
9.68009  13.3717
9.6991  9.5502
9.7181  6.73703
9.7371  4.52789
9.75611  3.02481
9.77511  1.75286
9.79411  1.15304
9.81312  0.154448
9.83212  -0.449881
9.85112  -0.5335
9.87013  -0.254143
9.88913  0.0962511
9.90813  0.813322
9.92714  1.49675
9.94614  2.21038
9.96514  2.65768
9.98415  3.26907
10.0031  3.86801
10.0222  4.18426
10.0412  4.37333
10.0602  3.93949
10.0792  3.4632
10.0982  3.55968
10.1172  4.89304
10.1362  7.04566
10.1552  9.40583
10.1742  13.5641
10.1932  17.124
10.2122  23.2535
10.2312  27.5504
10.2502  32.5798
10.2692  35.0203
10.2882  36.4389
10.3072  36.213
10.3262  35.924
10.3452  33.5773
10.3642  31.1695
10.3832  29.0991
10.4022  27.2397
10.4212  25.9382
10.4402  23.8371
10.4592  22.0772
10.4782  20.3746
10.4972  19.1413
10.5162  18.1061
10.5352  17.3547
10.5542  17.3735
10.5732  18.5537
10.5923  19.9793
10.6113  21.7963
10.6303  23.8231
10.6493  26.2751
10.6683  29.2218
10.6873  34.0672
10.7063  39.1666
10.7253  43.8198
10.7443  46.7834
10.7633  48.6304
10.7823  49.4536
10.8013  49.376
10.8203  48.483
10.8393  46.722
10.8583  43.8486
10.8773  40.4942
10.8963  36.4563
10.9153  31.9559
10.9343  27.515
10.9533  23.5217
10.9723  19.5259
10.9913  16.1104
11.0103  13.6578
11.0293  11.3569
11.0483  9.32388
11.0673  7.25095
11.0863  6.33349
11.1053  5.69187
11.1243  5.55903
11.1433  5.42771
11.1623  5.4278
11.1814  3.79809
11.2004  3.7793
11.2194  3.56647
11.2384  3.69041
11.2574  3.00822
11.2764  2.6332
11.2954  1.57315
11.3144  1.74774
11.3334  1.24743
11.3524  1.0535
11.3714  0.804841
11.3904  0.878295
11.4094  0.743449
11.4284  0.494515
11.4474  -0.174857
11.4664  -0.374577
11.4854  -0.423726
11.5044  -0.0789765
11.5234  -0.509216
11.5424  -0.944076
11.5614  -1.00088
11.5804  -0.583797
11.5994  -0.450069
11.6184  -0.524428
11.6374  -0.742909
11.6564  -0.811414
11.6754  -0.568822
11.6944  -0.149466
11.7134  0.11313
11.7324  0.264745
11.7515  1.14988
11.7705  1.95521
11.7895  3.07324
11.8085  4.09916
11.8275  4.7175
11.8465  5.03438
11.8655  5.00191
11.8845  5.06216
11.9035  5.20166
11.9225  5.72346
11.9415  6.77197
11.9605  8.45369
11.9795  9.94577
11.9985  12.587
12.0175  16.1639
12.0365  21.4698
12.0555  27.5797
12.0745  34.6959
12.0935  43.78
12.1125  52.45
12.1315  63.189
12.1505  72.9759
12.1695  81.6426
12.1885  87.6791
12.2075  91.2019
12.2265  91.0437
12.2455  88.3456
12.2645  84.7247
12.2835  80.4571
12.3025  75.8152
12.3215  71.0954
12.3406  66.8862
12.3596  60.8536
12.3786  54.7149
12.3976  48.4375
12.4166  42.6583
12.4356  38.5572
12.4546  35.3571
12.4736  33.3193
12.4926  31.3224
12.5116  29.7409
12.5306  28.8378
12.5496  28.2534
12.5686  27.7009
12.5876  27.1123
12.6066  26.5486
12.6256  25.4384
12.6446  24.9748
12.6636  24.874
12.6826  25.4618
12.7016  25.8513
12.7206  26.1862
12.7396  26.8991
12.7586  27.8256
12.7776  29.429
12.7966  31.0496
12.8156  33.2272
12.8346  35.6369
12.8536  38.5673
12.8726  42.7113
12.8916  46.0144
12.9106  50.9782
12.9297  53.4887
12.9487  58.1791
12.9677  60.0393
12.9867  62.1726
13.0057  62.2439
13.0247  59.3172
13.0437  54.4454
13.0627  49.5465
13.0817  40.1323
13.1007  33.7785
13.1197  27.8429
13.1387  22.355
13.1577  18.7548
13.1767  13.9962
13.1957  11.1117
13.2147  7.96789
13.2337  6.09326
13.2527  4.58327
13.2717  3.93715
13.2907  3.91894
13.3097  3.17183
13.3287  2.25343
13.3477  1.58552
13.3667  1.14866
13.3857  0.699279
13.4047  0.305539
13.4237  0.04872
13.4427  -0.316645
13.4617  -0.531313
13.4807  -0.564459
13.4998  -0.356655
13.5188  0.103906
13.5378  0.948027
13.5568  1.22507
13.5758  1.73963
13.5948  2.02576
13.6138  3.06286
13.6328  4.36202
13.6518  5.57217
13.6708  6.59548
13.6898  7.06387
13.7088  7.40047
13.7278  7.33071
13.7468  7.19801
13.7658  6.782
13.7848  6.51092
13.8038  6.12641
13.8228  5.95204
13.8418  5.65364
13.8608  5.26073
13.8798  5.35746
13.8988  5.41097
13.9178  5.37527
13.9368  5.07539
13.9558  4.87624
13.9748  4.47804
13.9938  3.64635
14.0128  2.94906
14.0318  2.41067
14.0508  1.85572
14.0698  1.52525
14.0889  1.2168
14.1079  0.942933
14.1269  0.606171
14.1459  0.520616
14.1649  0.595158
14.1839  0.545136
14.2029  0.67942
14.2219  0.291016
14.2409  -0.00740082
14.2599  -0.427946
14.2789  -0.516889
14.2979  -0.37278
14.3169  -0.0782583
14.3359  0.426997
14.3549  0.521618
14.3739  0.324332
14.3929  0.380977
14.4119  0.544791
14.4309  1.11277
14.4499  1.30475
14.4689  1.37055
14.4879  0.852935
14.5069  0.721485
14.5259  0.799393
14.5449  0.904434
14.5639  0.578378
14.5829  0.666721
14.6019  0.497101
14.6209  0.493954
14.6399  0.510879
14.6589  0.601912
14.678  0.542254
14.697  0.556946
14.716  0.203858
14.735  0.0577277
14.754  0.00672724
14.773  0.00723949
14.792  -0.141547
14.811  -0.109573
14.83  -0.153434
14.849  -0.0971258
14.868  0.00325465
14.887  0.206582
14.906  0.313136
14.925  0.452202
14.944  0.260174
14.963  0.512519
14.982  0.725469
15.001  0.777036
15.02  0.77894
15.039  1.24748
15.058  1.41055
15.077  1.89494
15.096  2.07236
15.115  1.95265
15.134  1.85878
15.153  1.73415
15.172  2.19362
15.191  2.48691
15.21  2.69253
15.229  2.70044
15.2481  2.94203
15.2671  3.23294
15.2861  3.73161
15.3051  3.9865
15.3241  4.37807
15.3431  5.04407
15.3621  5.39735
15.3811  5.98224
15.4001  7.31539
15.4191  8.93231
15.4381  10.5584
15.4571  12.3822
15.4761  14.4991
15.4951  16.1513
15.5141  17.2958
15.5331  18.3598
15.5521  19.3977
15.5711  20.561
15.5901  22.0339
15.6091  23.6075
15.6281  25.4175
15.6471  26.8296
15.6661  28.2453
15.6851  29.0949
15.7041  29.9706
15.7231  30.3959
15.7421  31.1201
15.7611  32.2249
15.7801  32.965
15.7991  33.8559
15.8181  34.7575
15.8372  35.6174
15.8562  35.6493
15.8752  34.8396
15.8942  33.6009
15.9132  31.8879
15.9322  29.4588
15.9512  27.4374
15.9702  25.2497
15.9892  23.2992
16.0082  20.9362
16.0272  19.262
16.0462  18.1539
16.0652  16.7754
16.0842  15.3018
16.1032  13.4442
16.1222  12.0688
16.1412  10.8889
16.1602  10.2162
16.1792  8.97718
16.1982  7.93572
16.2172  6.79611
16.2362  6.0555
16.2552  5.62969
16.2742  4.94756
16.2932  4.6523
16.3122  4.02201
16.3312  3.53014
16.3502  3.17401
16.3692  2.81685
16.3882  2.33659
16.4073  2.07953
16.4263  1.81837
16.4453  1.53728
16.4643  1.32117
16.4833  0.98061
16.5023  0.691077
16.5213  0.953541
16.5403  1.28277
16.5593  1.39353
16.5783  1.05236
16.5973  0.780272
16.6163  0.377495
16.6353  -0.028971
16.6543  -0.0137578
16.6733  -0.047119
16.6923  0.180238
16.7113  0.0853856
16.7303  0.400617
16.7493  0.255127
16.7683  0.0568658
16.7873  0.1215
16.8063  0.453559
16.8253  0.869205
16.8443  0.834794
16.8633  0.84868
16.8823  0.983877
16.9013  1.29628
16.9203  1.36087
16.9393  1.59265
16.9583  2.06752
16.9773  2.5547
16.9964  2.93266
17.0154  3.64666
17.0344  4.83501
17.0534  6.36527
17.0724  8.2506
17.0914  10.1097
17.1104  13.1103
17.1294  16.4107
17.1484  20.118
17.1674  23.6462
17.1864  27.4102
17.2054  31.6904
17.2244  36.4682
17.2434  41.9787
17.2624  47.1242
17.2814  51.0184
17.3004  53.5745
17.3194  55.5649
17.3384  56.5082
17.3574  57.1544
17.3764  57.1339
17.3954  57.1604
17.4144  56.5988
17.4334  55.9914
17.4524  55.2567
17.4714  54.821
17.4904  53.75
17.5094  52.4819
17.5284  50.694
17.5474  48.7985
17.5664  46.6869
17.5855  44.7985
17.6045  42.8659
17.6235  40.9586
17.6425  38.8567
17.6615  36.3996
17.6805  33.5022
17.6995  30.7763
17.7185  28.6325
17.7375  26.3891
17.7565  23.6778
17.7755  21.071
17.7945  19.0417
17.8135  17.5034
17.8325  16.0611
17.8515  14.6474
17.8705  13.4723
17.8895  12.5423
17.9085  11.9335
17.9275  11.1072
17.9465  10.6109
17.9655  9.91952
17.9845  10.2164
18.0035  11.181
18.0225  11.4525
18.0415  10.9019
18.0605  10.9902
18.0795  11.7653
18.0985  11.5465
18.1175  9.40884
18.1365  7.55279
18.1556  7.66806
18.1746  7.97147
18.1936  8.32089
18.2126  8.58623
18.2316  9.3637
18.2506  9.95196
18.2696  10.9104
18.2886  11.5512
18.3076  12.2041
18.3266  12.8281
18.3456  13.5219
18.3646  14.4319
18.3836  14.9144
18.4026  15.4376
18.4216  15.5577
18.4406  15.8717
18.4596  15.7976
18.4786  15.5193
18.4976  15.2108
18.5166  14.6561
18.5356  13.631
18.5546  12.4618
18.5736  11.2784
18.5926  9.77754
18.6116  8.36766
18.6306  7.42172
18.6496  6.33908
18.6686  5.10502
18.6876  3.66801
18.7066  2.05976
18.7256  0.960087
18.7447  0.264612
18.7637  -0.041765
18.7827  -0.412038
18.8017  -0.310518
18.8207  0.057175
18.8397  0.687087
18.8587  1.39912
18.8777  2.40906
18.8967  4.03073
18.9157  5.44091
18.9347  6.46165
18.9537  6.63525
18.9727  6.77259
18.9917  6.23268
19.0107  5.43595
19.0297  4.35019
19.0487  3.50842
19.0677  3.20786
19.0867  3.45593
19.1057  4.55516
19.1247  5.42868
19.1437  7.11268
19.1627  8.53408
19.1817  12.1502
19.2007  15.8494
19.2197  21.5344
19.2387  27.4727
19.2577  32.3804
19.2767  35.0783
19.2957  35.1159
19.3148  32.6976
19.3338  29.8958
19.3528  25.947
19.3718  23.68
19.3908  19.6507
19.4098  15.8761
19.4288  11.9627
19.4478  8.69924
19.4668  5.91509
19.4858  3.86706
19.5048  2.46669
19.5238  1.66224
19.5428  0.828739
19.5618  0.394626
19.5808  0.273251
19.5998  0.16349
19.6188  -0.00570164
19.6378  -0.321795
19.6568  -0.357003
19.6758  -0.483927
19.6948  -0.501596
19.7138  -0.476403
19.7328  -0.450469
19.7518  -0.268663
19.7708  0.0496643
19.7898  0.419586
19.8088  0.16125
19.8278  0.0814947
19.8468  0.25884
19.8658  0.332232
19.8848  0.276563
19.9039  0.165859
19.9229  0.337801
19.9419  0.510989
19.9609  0.657791
19.9799  0.775972
19.9989  0.86117
20.0179  0.877456
20.0369  1.00589
20.0559  0.964703
20.0749  0.683371
20.0939  0.585092
20.1129  0.613654
20.1319  0.847509
20.1509  0.936485
20.1699  1.06229
20.1889  0.967074
20.2079  0.843902
20.2269  0.917376
20.2459  0.7311
20.2649  0.681749
20.2839  0.700954
20.3029  0.848922
20.3219  0.753591
20.3409  0.675163
20.3599  0.678412
20.3789  0.872435
20.3979  1.01178
20.4169  0.912406
20.4359  1.01706
20.4549  1.16496
20.4739  1.49762
20.493  1.53996
20.512  1.58723
20.531  1.49182
20.55  1.62205
20.569  1.54159
20.588  1.55076
20.607  1.61358
20.626  1.59657
20.645  1.40049
20.664  1.36982
20.683  1.36401
20.702  1.42242
20.721  1.1712
20.74  0.999051
20.759  0.607618
20.778  0.458125
20.797  0.180399
20.816  -0.0128286
20.835  0.0992141
20.854  0.163161
20.873  0.0823803
20.892  -0.057475
20.911  -0.0522538
20.93  -0.085262
20.949  -0.140453
20.968  0.0988878
20.987  0.232028
21.006  0.231055
21.025  0.356379
21.044  0.572234
21.0631  0.502056
21.0821  0.391911
21.1011  0.41977
21.1201  0.523745
21.1391  0.531297
21.1581  0.66717
21.1771  0.771749
21.1961  0.713842
21.2151  0.647492
21.2341  0.677129
21.2531  0.676037
21.2721  0.637549
21.2911  0.522445
21.3101  0.339936
21.3291  0.0957045
21.3481  -0.124006
21.3671  -0.129189
21.3861  -0.0392818
21.4051  -0.00907133
21.4241  0.10354
21.4431  0.241085
21.4621  0.311181
21.4811  0.198585
21.5001  -0.0943219
21.5191  -0.0467783
21.5381  0.0927161
21.5571  0.28032
21.5761  0.132428
21.5951  0.093358
21.6141  0.0789783
21.6331  0.190073
21.6522  0.279462
21.6712  0.18076
21.6902  0.137994
21.7092  -0.0130871
21.7282  -0.186601
21.7472  -0.168421
21.7662  -0.00695792
21.7852  0.0220332
21.8042  -0.0938171
21.8232  0.0475993
21.8422  0.141931
21.8612  0.196623
21.8802  0.0541874
21.8992  0.177863
21.9182  -0.108298
21.9372  -0.132344
21.9562  -0.2331
21.9752  -0.0111583
21.9942  0.0430302
22.0132  0.267802
22.0322  -0.141944