File: data/processed/Run2_XRD/4_ReMoB2_430psi_23p4GPa_S_P1_C1_D1w_031.dat
2.93393  0.66619
2.95294  0.506532
2.97194  0.427968
2.99094  0.20505
3.00995  -0.162729
3.02895  -0.183199
3.04795  0.028533
3.06696  0.591301
3.08596  0.735277
3.10496  0.826519
3.12397  1.05528
3.14297  1.31732
3.16197  1.21908
3.18098  0.885885
3.19998  0.911222
3.21898  1.00551
3.23799  1.72817
3.25699  1.6811
3.27599  1.5839
3.295  1.7431
3.314  2.48366
3.333  3.30532
3.35201  3.78744
3.37101  4.82523
3.39001  7.50994
3.40902  13.4414
3.42802  23.838
3.44702  35.5114
3.46603  46.1025
3.48503  50.6781
3.50403  46.7712
3.52304  35.6554
3.54204  22.8483
3.56104  13.3844
3.58005  7.56326
3.59905  4.46771
3.61805  2.46219
3.63706  1.49752
3.65606  1.16644
3.67506  1.0278
3.69407  0.615556
3.71307  0.578848
3.73207  0.635518
3.75108  0.516977
3.77008  0.901724
3.78908  1.02609
3.80808  1.11707
3.82709  1.24134
3.84609  1.30299
3.86509  1.34326
3.8841  0.623137
3.9031  0.66921
3.9221  0.33275
3.94111  0.550399
3.96011  0.81633
3.97911  0.97162
3.99812  1.41794
4.01712  1.01047
4.03612  0.629654
4.05513  0.353662
4.07413  -0.175088
4.09313  0.174886
4.11214  0.550852
4.13114  1.03977
4.15014  1.6579
4.16915  1.61564
4.18815  1.39517
4.20715  0.781994
4.22616  0.812771
4.24516  0.792585
4.26416  0.888746
4.28317  0.396298
4.30217  0.54982
4.32117  0.488083
4.34018  0.541163
4.35918  0.708689
4.37818  0.509949
4.39719  0.273183
4.41619  -0.032078
4.43519  -0.0693254
4.4542  0.41337
4.4732  0.477694
4.4922  0.748935
4.51121  0.271559
4.53021  -0.0310153
4.54921  0.0360978
4.56822  0.215252
4.58722  0.162549
4.60622  -0.0248945
4.62523  0.0839918
4.64423  0.500732
4.66323  0.438885
4.68224  0.69088
4.70124  0.738998
4.72024  1.24137
4.73924  1.68493
4.75825  1.31098
4.77725  0.686687
4.79625  0.317621
4.81526  0.329309
4.83426  0.0380465
4.85326  0.205611
4.87227  0.236284
4.89127  0.272676
4.91027  0.588961
4.92928  0.516059
4.94828  1.02084
4.96728  0.936065
4.98629  0.704844
5.00529  0.108063
5.02429  -0.19092
5.0433  0.276576
5.0623  0.460951
5.0813  0.552197
5.10031  0.274429
5.11931  0.184559
5.13831  0.284791
5.15732  0.448068
5.17632  0.907683
5.19532  0.759037
5.21433  0.337389
5.23333  0.105417
5.25233  0.337024
5.27134  0.668527
5.29034  0.699525
5.30934  0.288291
5.32835  0.410239
5.34735  0.819434
5.36635  0.994311
5.38536  0.434021
5.40436  -0.26326
5.42336  0.568359
5.44237  0.907172
5.46137  1.02703
5.48037  0.536044
5.49938  0.505412
5.51838  0.401308
5.53738  -0.156827
5.55639  -0.311156
5.57539  -0.088213
5.59439  0.347642
5.6134  0.693737
5.6324  0.693455
5.6514  1.31669
5.67041  2.89028
5.68941  4.88809
5.70841  7.38457
5.72741  9.46784
5.74642  10.1131
5.76542  10.6424
5.78442  9.90288
5.80343  8.49859
5.82243  6.74984
5.84143  5.11227
5.86044  3.8419
5.87944  2.66958
5.89844  2.08354
5.91745  1.51617
5.93645  1.89399
5.95545  1.89604
5.97446  1.96883
5.99346  1.57585
6.01246  1.00963
6.03147  0.68685
6.05047  0.478348
6.06947  0.951199
6.08848  1.0727
6.10748  1.40854
6.12648  1.1683
6.14549  0.638076
6.16449  0.737645
6.18349  0.844607
6.2025  1.36317
6.2215  1.88352
6.2405  2.89093
6.25951  4.10811
6.27851  6.20041
6.29751  9.10173
6.31652  14.559
6.33552  22.3238
6.35452  31.104
6.37353  37.5371
6.39253  37.9615
6.41153  32.1942
6.43054  22.7683
6.44954  14.4707
6.46854  9.23909
6.48755  7.11447
6.50655  6.59085
6.52555  7.53993
6.54456  8.93949
6.56356  10.3084
6.58256  11.1885
6.60157  11.5521
6.62057  11.158
6.63957  9.93412
6.65857  8.34105
6.67758  6.82535
6.69658  5.86694
6.71558  5.82953
6.73459  6.14113
6.75359  7.44268
6.77259  9.81104
6.7916  13.1571
6.8106  19.607
6.8296  27.5863
6.84861  39.5261
6.86761  56.7602
6.88661  72.0281
6.90562  94.2287
6.92462  109.057
6.94362  132.63
6.96263  139.784
6.98163  143.702
7.00063  124.865
7.01964  102.838
7.03864  74.25
7.05764  52.3453
7.07665  35.2961
7.09565  23.5587
7.11465  15.7736
7.13366  10.2987
7.15266  7.21577
7.17166  5.05797
7.19067  3.18765
7.20967  1.65737
7.22867  0.717745
7.24768  0.480532
7.26668  0.551232
7.28568  0.849303
7.30469  0.612391
7.32369  0.338612
7.34269  0.396809
7.3617  0.833915
7.3807  0.669906
7.3997  0.7658
7.41871  0.270112
7.43771  0.474026
7.45671  -0.061612
7.47572  -0.302125
7.49472  -0.104986
7.51372  0.302868
7.53273  0.665926
7.55173  0.669566
7.57073  0.49552
7.58973  0.945826
7.60874  1.34085
7.62774  1.62096
7.64674  1.42137
7.66575  1.4796
7.68475  1.3386
7.70375  0.710588
7.72276  0.244411
7.74176  0.231755
7.76076  0.54496
7.77977  0.817166
7.79877  0.593006
7.81777  -0.00119348
7.83678  -0.157171
7.85578  0.292596
7.87478  1.17783
7.89379  0.989295
7.91279  0.603326
7.93179  0.22421
7.9508  0.256256
7.9698  0.429067
7.9888  0.603864
8.00781  0.709972
8.02681  0.828944
8.04581  0.468254
8.06482  0.394305
8.08382  0.0354715
8.10282  0.283204
8.12183  0.459186
8.14083  0.752656
8.15983  0.633122
8.17884  0.809746
8.19784  0.669895
8.21684  0.447812
8.23585  0.48223
8.25485  0.931676
8.27385  0.844937
8.29286  0.24817
8.31186  0.0992238
8.33086  -0.223581
8.34987  0.00810543
8.36887  -0.105001
8.38787  0.305829
8.40688  0.548502
8.42588  0.809931
8.44488  0.74012
8.46389  0.598434
8.48289  0.202027
8.50189  0.169785
8.52089  -0.0315101
8.5399  0.285649
8.5589  0.353399
8.5779  0.555367
8.59691  0.669771
8.61591  0.710808
8.63491  0.532676
8.65392  0.295014
8.67292  0.00670819
8.69192  0.203205
8.71093  0.0564325
8.72993  0.216782
8.74893  0.316053
8.76794  0.217149
8.78694  -0.0800689
8.80594  -0.0537597
8.82495  0.14152
8.84395  0.387139
8.86295  0.0957699
8.88196  -0.0774187
8.90096  0.15359
8.91996  0.761935
8.93897  1.31708
8.95797  1.80986
8.97697  2.65999
8.99598  3.6862
9.01498  5.51203
9.03398  7.8686
9.05299  11.0294
9.07199  15.3289
9.09099  21.5436
9.11  29.9987
9.129  41.5258
9.148  56.4177
9.16701  75.4715
9.18601  100.242
9.20501  132.267
9.22402  176.736
9.24302  231.047
9.26202  298.866
9.28103  373.998
9.30003  449.038
9.31903  516.103
9.33804  547.132
9.35704  544.894
9.37604  500.472
9.39505  455.211
9.41405  405.346
9.43305  364.014
9.45206  331.051
9.47106  304.55
9.49006  290.212
9.50906  278.101
9.52807  265.468
9.54707  245.808
9.56607  219.594
9.58508  184.606
9.60408  148.676
9.62308  115.057
9.64209  87.2772
9.66109  66.039
9.68009  49.958
9.6991  37.8343
9.7181  29.0272
9.7371  22.3365
9.75611  17.0464
9.77511  12.589
9.79411  8.96992
9.81312  6.29445
9.83212  4.36518
9.85112  2.81484
9.87013  1.50854
9.88913  0.654922
9.90813  0.285072
9.92714  -0.0298086
9.94614  -0.23298
9.96514  -0.315717
9.98415  -0.475403
10.0031  -0.607975
10.0222  -0.467561
10.0412  -0.169146
10.0602  0.174205
10.0792  0.145651
10.0982  0.271376
10.1172  0.719025
10.1362  1.11599
10.1552  1.28495
10.1742  1.50559
10.1932  2.18327
10.2122  3.93064
10.2312  5.28556
10.2502  8.24567
10.2692  11.162
10.2882  13.9975
10.3072  18.2035
10.3262  21.5201
10.3452  25.3718
10.3642  27.6566
10.3832  29.1428
10.4022  30.1779
10.4212  31.1619
10.4402  30.8876
10.4592  32.0169
10.4782  32.9194
10.4972  33.7966
10.5162  33.7089
10.5352  33.4601
10.5542  32.6787
10.5732  31.635
10.5923  29.7913
10.6113  28.1547
10.6303  27.5044
10.6493  27.6451
10.6683  28.1617
10.6873  29.1387
10.7063  30.676
10.7253  32.4129
10.7443  34.6032
10.7633  37.2447
10.7823  39.8308
10.8013  42.5855
10.8203  45.5033
10.8393  48.2209
10.8583  50.3724
10.8773  52.3792
10.8963  53.6777
10.9153  53.8106
10.9343  52.9874
10.9533  50.8209
10.9723  47.2915
10.9913  43.6091
11.0103  39.0471
11.0293  34.9417
11.0483  31.0256
11.0673  27.296
11.0863  23.6811
11.1053  20.0029
11.1243  16.7125
11.1433  14.0746
11.1623  11.8636
11.1814  9.40185
11.2004  7.97979
11.2194  6.78187
11.2384  5.95656
11.2574  4.94485
11.2764  4.18792
11.2954  4.03082
11.3144  3.93761
11.3334  3.46013
11.3524  2.96901
11.3714  2.49397
11.3904  2.01648
11.4094  1.7793
11.4284  1.83452
11.4474  1.49348
11.4664  1.1298
11.4854  0.954722
11.5044  0.509693
11.5234  0.267293
11.5424  -0.143703
11.5614  -0.320925
11.5804  -0.518597
11.5994  -0.686812
11.6184  -0.829547
11.6374  -0.839564
11.6564  -0.776759
11.6754  -0.970658
11.6944  -0.947963
11.7134  -0.726763
11.7324  -0.848256
11.7515  -0.670691
11.7705  -0.565881
11.7895  -0.12885
11.8085  -0.0222642
11.8275  0.324612
11.8465  0.508695
11.8655  0.839761
11.8845  1.19101
11.9035  2.09559
11.9225  3.00322
11.9415  3.73567
11.9605  4.96544
11.9795  6.37555
11.9985  7.37227
12.0175  7.9018
12.0365  8.57045
12.0555  9.4399
12.0745  10.6994
12.0935  12.2001
12.1125  14.1482
12.1315  16.749
12.1505  19.748
12.1695  23.5402
12.1885  27.7002
12.2075  33.3259
12.2265  40.355
12.2455  48.0619
12.2645  57.7919
12.2835  67.8877
12.3025  79.2208
12.3215  89.2255
12.3406  96.7512
12.3596  99.4594
12.3786  98.3031
12.3976  94.1561
12.4166  89.8476
12.4356  83.1341
12.4546  76.453
12.4736  69.8767
12.4926  63.8849
12.5116  57.8011
12.5306  53.344
12.5496  48.6613
12.5686  45.145
12.5876  41.8537
12.6066  39.338
12.6256  37.7547
12.6446  36.8385
12.6636  35.9734
12.6826  36.1518
12.7016  35.9059
12.7206  35.6462
12.7396  35.3934
12.7586  35.5767
12.7776  36.3549
12.7966  36.5175
12.8156  36.7578
12.8346  36.7584
12.8536  36.8154
12.8726  36.3782
12.8916  36.3379
12.9106  36.9758
12.9297  37.6456
12.9487  38.0803
12.9677  39.172
12.9867  40.2126
13.0057  41.4953
13.0247  42.9678
13.0437  45.0784
13.0627  46.534
13.0817  48.1616
13.1007  49.3107
13.1197  49.8782
13.1387  50.2981
13.1577  49.6535
13.1767  48.5964
13.1957  46.4413
13.2147  43.2904
13.2337  39.1496
13.2527  34.7712
13.2717  29.6839
13.2907  24.7647
13.3097  19.5522
13.3287  14.9715
13.3477  11.3011
13.3667  8.53049
13.3857  6.24565
13.4047  4.32362
13.4237  2.94338
13.4427  2.09141
13.4617  1.87754
13.4807  1.23501
13.4998  0.452272
13.5188  0.0723439
13.5378  -0.48559
13.5568  -0.694789
13.5758  -0.771857
13.5948  -0.304861
13.6138  -0.173856
13.6328  0.0139986
13.6518  0.292336
13.6708  0.90479
13.6898  1.20951
13.7088  1.60164
13.7278  1.85166
13.7468  2.50792
13.7658  3.28285
13.7848  4.22175
13.8038  4.84703
13.8228  5.23895
13.8418  5.50721
13.8608  6.04993
13.8798  6.73417
13.8988  7.29948
13.9178  8.17139
13.9368  8.73954
13.9558  9.2575
13.9748  9.44808
13.9938  9.63604
14.0128  10.0726
14.0318  10.4109
14.0508  10.4788
14.0698  10.4586
14.0889  9.59131
14.1079  8.63684
14.1269  7.322
14.1459  5.94241
14.1649  4.0968
14.1839  3.20725
14.2029  2.72868
14.2219  2.13699
14.2409  1.39481
14.2599  0.402066
14.2789  -0.322009
14.2979  -0.196494
14.3169  0.1957
14.3359  0.329893
14.3549  -0.0780813
14.3739  -0.242014
14.3929  -0.360569
14.4119  -0.235017
14.4309  -0.0386309
14.4499  0.174571
14.4689  0.113413
14.4879  -0.302208
14.5069  -0.250747
14.5259  -0.103924
14.5449  0.148171
14.5639  0.358574
14.5829  0.303337
14.6019  0.164626
14.6209  0.105684
14.6399  0.360509
14.6589  0.494795
14.678  0.581301
14.697  0.955755
14.716  0.991729
14.735  0.984101
14.754  0.935363
14.773  1.0108
14.792  0.859796
14.811  0.464893
14.83  0.227346
14.849  0.476858
14.868  0.756703
14.887  0.650662
14.906  0.538287
14.925  0.69324
14.944  0.507458
14.963  0.0672074
14.982  -0.30545
15.001  -0.0664945
15.02  0.215622
15.039  0.488074
15.058  0.559911
15.077  0.33532
15.096  0.307748
15.115  0.434444
15.134  0.5876
15.153  0.528378
15.172  0.708683
15.191  0.848813
15.21  1.08808
15.229  1.49458
15.2481  1.70562
15.2671  1.94271
15.2861  2.13592
15.3051  1.79782
15.3241  1.73503
15.3431  1.83596
15.3621  2.05951
15.3811  2.09008
15.4001  2.47171
15.4191  3.06138
15.4381  3.45312
15.4571  3.98814
15.4761  4.55553
15.4951  5.22803
15.5141  5.8789
15.5331  6.6934
15.5521  7.96739
15.5711  9.17879
15.5901  10.8161
15.6091  12.4357
15.6281  14.2282
15.6471  15.6453
15.6661  17.1798
15.6851  18.3603
15.7041  19.479
15.7231  20.7819
15.7421  22.1322
15.7611  23.0774
15.7801  23.3527
15.7991  24.5754
15.8181  25.885
15.8372  27.4182
15.8562  28.6807
15.8752  29.8651
15.8942  30.5117
15.9132  31.0658
15.9322  31.3201
15.9512  31.9057
15.9702  32.3736
15.9892  32.9472
16.0082  33.0352
16.0272  33.0548
16.0462  32.9512
16.0652  33.0053
16.0842  32.8611
16.1032  32.6008
16.1222  31.964
16.1412  30.8883
16.1602  29.6445
16.1792  27.5151
16.1982  25.4024
16.2172  23.1545
16.2362  21.2275
16.2552  19.3744
16.2742  17.2054
16.2932  15.392
16.3122  13.8492
16.3312  12.1283
16.3502  10.3611
16.3692  8.80271
16.3882  7.78062
16.4073  6.91214
16.4263  6.25329
16.4453  5.48149
16.4643  4.73082
16.4833  4.14146
16.5023  3.57499
16.5213  3.23139
16.5403  2.76388
16.5593  2.39291
16.5783  1.95028
16.5973  1.41627
16.6163  1.09963
16.6353  1.18796
16.6543  1.21477
16.6733  1.03822
16.6923  0.838268
16.7113  0.443385
16.7303  0.376709
16.7493  0.313878
16.7683  0.406697
16.7873  0.195367
16.8063  0.034763
16.8253  0.191564
16.8443  0.132116
16.8633  0.181031
16.8823  0.331401
16.9013  0.597087
16.9203  0.452973
16.9393  0.316011
16.9583  0.552985
16.9773  0.986162
16.9964  1.43569
17.0154  1.69267
17.0344  2.25489
17.0534  2.58686
17.0724  2.76217
17.0914  2.94843
17.1104  3.55728
17.1294  4.46236
17.1484  5.3974
17.1674  5.94928
17.1864  6.80551
17.2054  8.12873
17.2244  9.87854
17.2434  11.9967
17.2624  14.3109
17.2814  17.0724
17.3004  20.1424
17.3194  23.7754
17.3384  28.3244
17.3574  33.895
17.3764  40.1104
17.3954  46.6025
17.4144  52.7062
17.4334  58.353
17.4524  63.9433
17.4714  67.4608
17.4904  70.4429
17.5094  71.9659
17.5284  73.1115
17.5474  73.3305
17.5664  73.1531
17.5855  72.5733
17.6045  71.2525
17.6235  69.5599
17.6425  67.0149
17.6615  63.9866
17.6805  61.1697
17.6995  57.0464
17.7185  53.0145
17.7375  48.812
17.7565  44.8002
17.7755  40.6515
17.7945  37.3293
17.8135  34.4075
17.8325  31.6509
17.8515  29.1826
17.8705  26.786
17.8895  24.3479
17.9085  22.2115
17.9275  20.0936
17.9465  18.2938
17.9655  16.6643
17.9845  15.4414
18.0035  14.2276
18.0225  12.9823
18.0415  11.6085
18.0605  10.327
18.0795  9.40208
18.0985  8.67813
18.1175  8.19313
18.1365  7.5136
18.1556  7.20876
18.1746  6.77352
18.1936  6.67748
18.2126  6.38321
18.2316  6.48046
18.2506  6.35771
18.2696  6.24583
18.2886  5.99329
18.3076  6.08129
18.3266  6.29574
18.3456  6.57299
18.3646  6.59513
18.3836  6.95392
18.4026  7.47271
18.4216  7.95786
18.4406  8.39356
18.4596  9.20972
18.4786  10.0084
18.4976  10.8107
18.5166  11.5955
18.5356  12.6889
18.5546  13.4259
18.5736  13.4445
18.5926  13.2507
18.6116  13.2638
18.6306  13.5145
18.6496  13.3435
18.6686  12.8657
18.6876  12.4555
18.7066  11.8421
18.7256  11.0448
18.7447  9.93356
18.7637  8.69728
18.7827  7.28126
18.8017  6.1114
18.8207  4.76234
18.8397  3.84516
18.8587  2.95196
18.8777  2.26993
18.8967  1.47865
18.9157  0.987658
18.9347  0.408917
18.9537  0.0375728
18.9727  -0.310265
18.9917  -0.661422
19.0107  -0.736997
19.0297  -0.641987
19.0487  -0.270338
19.0677  0.105707
19.0867  0.991665
19.1057  1.85498
19.1247  3.0966
19.1437  4.30537
19.1627  5.24236
19.1817  5.84798
19.2007  5.99004
19.2197  6.37016
19.2387  6.52523
19.2577  6.41026
19.2767  6.64162
19.2957  7.08822
19.3148  8.17581
19.3338  9.53191
19.3528  12.0648
19.3718  14.8711
19.3908  18.7432
19.4098  21.8389
19.4288  24.2297
19.4478  24.7335
19.4668  24.5549
19.4858  22.3432
19.5048  20.8568
19.5238  18.457
19.5428  15.1184
19.5618  12.1956
19.5808  9.66897
19.5998  7.138
19.6188  5.28264
19.6378  3.70122
19.6568  2.57718
19.6758  1.54349
19.6948  1.0758
19.7138  0.803118
19.7328  0.673235
19.7518  0.547828
19.7708  0.406
19.7898  -0.0381827
19.8088  -0.429523
19.8278  -0.55842
19.8468  -0.306777
19.8658  -0.0205929
19.8848  -0.0732489
19.9039  -0.0745154
19.9229  0.026466
19.9419  -0.0326115
19.9609  0.0123074
19.9799  0.316898
19.9989  0.258798
20.0179  0.0912306
20.0369  0.252592
20.0559  0.333129
20.0749  0.474549
20.0939  0.526277
20.1129  0.617803
20.1319  0.76417
20.1509  1.00789
20.1699  1.22739
20.1889  1.56302
20.2079  1.67507
20.2269  1.71825
20.2459  1.66034
20.2649  1.67534
20.2839  1.86941
20.3029  2.01926
20.3219  2.01234
20.3409  2.11735
20.3599  2.08206
20.3789  1.84186
20.3979  1.51067
20.4169  1.27278
20.4359  1.15232
20.4549  1.01316
20.4739  1.10346
20.493  1.04018
20.512  0.91816
20.531  0.629455
20.55  0.676989
20.569  0.828721
20.588  0.820667
20.607  0.642086
20.626  0.682892
20.645  0.512626
20.664  0.558739
20.683  0.522817
20.702  0.705854
20.721  0.81353
20.74  1.04145
20.759  1.27208
20.778  1.29983
20.797  1.17371
20.816  1.14604
20.835  1.00343
20.854  0.774977
20.873  0.768817
20.892  0.95637
20.911  0.891264
20.93  0.682147
20.949  0.582873
20.968  0.579255
20.987  0.424089
21.006  0.287943
21.025  0.252748
21.044  0.135534
21.0631  0.0551757
21.0821  -0.0651785
21.1011  -0.076014
21.1201  -0.0530936
21.1391  0.149618
21.1581  0.547907
21.1771  0.762141
21.1961  0.77492
21.2151  0.867663
21.2341  0.886949
21.2531  0.765817
21.2721  0.972578
21.2911  1.10474
21.3101  0.861415
21.3291  0.771195
21.3481  0.541587
21.3671  0.379279
21.3861  0.242815
21.4051  0.00775198
21.4241  -0.18562
21.4431  -0.175537
21.4621  0.160369
21.4811  0.245319
21.5001  0.138733
21.5191  0.107984
21.5381  -0.0118429
21.5571  0.0166721
21.5761  0.08278
21.5951  0.279673
21.6141  0.308616
21.6331  0.0677085
21.6522  0.0966899
21.6712  0.172923
21.6902  0.192698
21.7092  0.227221
21.7282  0.116535
21.7472  -0.127679
21.7662  -0.17996
21.7852  -0.182505
21.8042  0.0188355
21.8232  0.174613
21.8422  0.298321
21.8612  0.102399
21.8802  -0.0942159
21.8992  -0.156263
21.9182  0.00839094
21.9372  0.061196
21.9562  -0.0456768
21.9752  -0.00197401
21.9942  0.00460184
22.0132  0.0211547
22.0322  -0.00974723