File: data/processed/Run2_XRD/5_ReMoB2_450psi_30p5GPa_S_P1_C1_D1w_037.dat
2.93393  0.458681
2.95294  0.447663
2.97194  0.160836
2.99094  0.266653
3.00995  0.454209
3.02895  0.592701
3.04795  0.612403
3.06696  0.940478
3.08596  1.17683
3.10496  1.26861
3.12397  0.881192
3.14297  1.0284
3.16197  0.797874
3.18098  0.373269
3.19998  0.129071
3.21898  0.425059
3.23799  1.04882
3.25699  1.16009
3.27599  1.7039
3.295  1.73676
3.314  1.45895
3.333  1.14263
3.35201  1.79888
3.37101  3.56719
3.39001  6.0197
3.40902  10.122
3.42802  16.149
3.44702  23.2079
3.46603  29.8284
3.48503  34.6482
3.50403  34.8893
3.52304  29.6326
3.54204  21.5902
3.56104  12.8517
3.58005  7.59932
3.59905  4.31736
3.61805  2.77302
3.63706  1.75385
3.65606  1.76099
3.67506  1.64471
3.69407  1.05924
3.71307  1.31337
3.73207  2.2091
3.75108  2.22314
3.77008  1.73586
3.78908  1.11154
3.80808  1.18517
3.82709  0.62878
3.84609  0.634297
3.86509  0.141787
3.8841  0.132138
3.9031  0.347763
3.9221  0.400991
3.94111  0.314998
3.96011  -0.024251
3.97911  0.134238
3.99812  0.320104
4.01712  0.219206
4.03612  -0.0558333
4.05513  0.222245
4.07413  0.456797
4.09313  0.72531
4.11214  0.455131
4.13114  0.419354
4.15014  0.78038
4.16915  0.906877
4.18815  1.47081
4.20715  1.47664
4.22616  1.41813
4.24516  0.628009
4.26416  0.763725
4.28317  0.665019
4.30217  0.57458
4.32117  0.535494
4.34018  0.799375
4.35918  0.730424
4.37818  0.622614
4.39719  0.20568
4.41619  0.0298483
4.43519  0.287198
4.4542  0.910542
4.4732  0.654608
4.4922  0.693449
4.51121  0.726143
4.53021  0.767881
4.54921  0.782176
4.56822  0.145685
4.58722  -0.1314
4.60622  0.513183
4.62523  1.12171
4.64423  1.37717
4.66323  0.987406
4.68224  0.251768
4.70124  -0.0444123
4.72024  -0.101445
4.73924  0.391327
4.75825  0.821136
4.77725  1.07782
4.79625  1.39297
4.81526  1.09661
4.83426  1.36113
4.85326  1.02294
4.87227  1.30726
4.89127  0.822139
4.91027  1.01808
4.92928  0.500567
4.94828  0.488608
4.96728  0.51178
4.98629  0.53369
5.00529  0.57117
5.02429  0.361297
5.0433  0.670289
5.0623  0.339634
5.0813  0.0285488
5.10031  -0.107034
5.11931  -0.0587177
5.13831  -0.0781939
5.15732  -0.208454
5.17632  0.120983
5.19532  0.181292
5.21433  0.445843
5.23333  0.776502
5.25233  0.987507
5.27134  0.581892
5.29034  0.573594
5.30934  -0.0927456
5.32835  0.0464356
5.34735  0.221261
5.36635  0.791318
5.38536  0.734631
5.40436  0.598102
5.42336  0.0874654
5.44237  -0.00851631
5.46137  0.0475798
5.48037  0.61678
5.49938  0.495253
5.51838  0.14592
5.53738  -0.0594746
5.55639  -0.0119282
5.57539  0.234342
5.59439  0.370219
5.6134  0.273075
5.6324  -0.0537966
5.6514  0.267154
5.67041  1.26564
5.68941  2.28363
5.70841  3.83337
5.72741  5.18458
5.74642  6.62762
5.76542  6.91063
5.78442  6.88885
5.80343  6.35354
5.82243  5.74735
5.84143  4.79434
5.86044  3.46966
5.87944  2.8976
5.89844  2.24245
5.91745  1.50143
5.93645  0.900576
5.95545  0.63987
5.97446  0.956169
5.99346  1.02095
6.01246  0.811527
6.03147  0.203671
6.05047  0.133615
6.06947  0.0188946
6.08848  0.0100723
6.10748  0.230854
6.12648  0.358918
6.14549  0.428298
6.16449  0.455337
6.18349  0.531182
6.2025  0.210895
6.2215  0.215429
6.2405  0.636328
6.25951  1.64466
6.27851  2.48387
6.29751  3.50815
6.31652  5.44878
6.33552  8.83786
6.35452  15.5206
6.37353  22.4241
6.39253  28.4929
6.41153  27.6813
6.43054  22.9101
6.44954  15.8347
6.46854  10.1434
6.48755  6.05729
6.50655  4.09297
6.52555  3.8935
6.54456  5.00922
6.56356  6.23432
6.58256  7.81424
6.60157  10.0344
6.62057  11.8308
6.63957  12.6649
6.65857  12.1116
6.67758  11.1565
6.69658  10.3058
6.71558  9.52073
6.73459  8.63668
6.75359  8.07145
6.77259  8.53118
6.7916  10.263
6.8106  13.9124
6.8296  18.8999
6.84861  26.0466
6.86761  36.0575
6.88661  47.6737
6.90562  63.989
6.92462  77.8505
6.94362  95.5983
6.96263  106.247
6.98163  114.921
7.00063  113.043
7.01964  106.764
7.03864  89.6361
7.05764  70.5618
7.07665  50.2018
7.09565  34.4665
7.11465  23.2752
7.13366  15.3355
7.15266  10.256
7.17166  6.77009
7.19067  4.35814
7.20967  3.32701
7.22867  2.97336
7.24768  2.40492
7.26668  2.01107
7.28568  1.40312
7.30469  1.10864
7.32369  0.86473
7.34269  0.316787
7.3617  0.135365
7.3807  0.215258
7.3997  0.561823
7.41871  0.642791
7.43771  0.648994
7.45671  0.451959
7.47572  0.457027
7.49472  0.647225
7.51372  0.455121
7.53273  0.088566
7.55173  -0.30213
7.57073  -0.0966993
7.58973  0.19594
7.60874  0.38053
7.62774  0.283076
7.64674  0.103302
7.66575  0.338817
7.68475  0.610318
7.70375  1.00842
7.72276  0.913066
7.74176  1.18588
7.76076  1.27653
7.77977  1.04101
7.79877  0.509207
7.81777  0.269331
7.83678  0.387708
7.85578  0.52632
7.87478  0.625901
7.89379  0.389552
7.91279  0.670326
7.93179  0.493092
7.9508  0.513646
7.9698  0.324857
7.9888  0.499299
8.00781  0.651132
8.02681  0.582258
8.04581  0.142873
8.06482  -0.0592553
8.08382  -0.147682
8.10282  0.0225156
8.12183  0.542615
8.14083  0.519092
8.15983  0.423661
8.17884  0.168577
8.19784  -0.0340951
8.21684  -0.085473
8.23585  0.225103
8.25485  0.294476
8.27385  0.378033
8.29286  0.249638
8.31186  0.340882
8.33086  -0.0521548
8.34987  0.239104
8.36887  0.282379
8.38787  0.613168
8.40688  0.200158
8.42588  0.106328
8.44488  0.381039
8.46389  0.66926
8.48289  0.687018
8.50189  0.417244
8.52089  0.564244
8.5399  0.381442
8.5589  0.710307
8.5779  0.833336
8.59691  1.07507
8.61591  0.821307
8.63491  0.583034
8.65392  0.240845
8.67292  0.21352
8.69192  -0.00107003
8.71093  -0.0946537
8.72993  -0.256957
8.74893  -0.0495714
8.76794  0.311021
8.78694  0.32656
8.80594  -0.171686
8.82495  -0.411342
8.84395  -0.309672
8.86295  0.178143
8.88196  0.263821
8.90096  0.72751
8.91996  0.739082
8.93897  0.759386
8.95797  0.999108
8.97697  1.44343
8.99598  1.95811
9.01498  2.31692
9.03398  2.87599
9.05299  4.16073
9.07199  5.71437
9.09099  8.29383
9.11  11.1786
9.129  15.4654
9.148  20.957
9.16701  28.1943
9.18601  37.7012
9.20501  50.2626
9.22402  68.3257
9.24302  91.9656
9.26202  124.168
9.28103  169.545
9.30003  233.197
9.31903  329.665
9.33804  437.246
9.35704  580.106
9.37604  673.021
9.39505  755.335
9.41405  762.407
9.43305  724.791
9.45206  628.897
9.47106  520.519
9.49006  441.522
9.50906  375.929
9.52807  336.575
9.54707  310.726
9.56607  297.688
9.58508  282.258
9.60408  263.15
9.62308  231.9
9.64209  195.874
9.66109  156.263
9.68009  121.809
9.6991  92.9485
9.7181  70.7024
9.7371  52.9512
9.75611  39.5659
9.77511  29.4238
9.79411  22.2834
9.81312  16.8882
9.83212  12.4969
9.85112  9.09676
9.87013  6.40235
9.88913  4.71775
9.90813  3.22653
9.92714  2.01424
9.94614  0.942923
9.96514  0.276375
9.98415  -0.206005
10.0031  -0.517607
10.0222  -0.755493
10.0412  -0.671919
10.0602  -0.305235
10.0792  0.27429
10.0982  0.894186
10.1172  1.32653
10.1362  1.70859
10.1552  1.82131
10.1742  2.65693
10.1932  2.82654
10.2122  3.04151
10.2312  3.12097
10.2502  3.9143
10.2692  4.88616
10.2882  5.80892
10.3072  7.4948
10.3262  9.25185
10.3452  13.0933
10.3642  16.8161
10.3832  21.6551
10.4022  24.9782
10.4212  27.1774
10.4402  28.5073
10.4592  29.9679
10.4782  30.0056
10.4972  29.7248
10.5162  29.117
10.5352  28.6013
10.5542  28.4002
10.5732  27.6314
10.5923  26.1161
10.6113  24.0828
10.6303  22.3956
10.6493  21.084
10.6683  20.244
10.6873  20.3204
10.7063  20.7794
10.7253  21.7002
10.7443  22.3998
10.7633  23.332
10.7823  24.4581
10.8013  25.495
10.8203  27.2262
10.8393  28.9747
10.8583  30.2006
10.8773  31.8822
10.8963  33.2719
10.9153  34.463
10.9343  35.3418
10.9533  36.2247
10.9723  36.7801
10.9913  36.9177
11.0103  36.2908
11.0293  35.281
11.0483  33.7163
11.0673  31.7537
11.0863  30.1089
11.1053  28.9121
11.1243  27.2258
11.1433  25.1175
11.1623  21.8791
11.1814  18.5818
11.2004  15.8275
11.2194  13.3145
11.2384  11.163
11.2574  9.049
11.2764  7.22212
11.2954  6.11146
11.3144  5.2833
11.3334  4.58309
11.3524  3.91593
11.3714  3.23017
11.3904  2.67113
11.4094  2.4652
11.4284  2.49423
11.4474  2.46251
11.4664  2.18283
11.4854  1.98581
11.5044  1.7229
11.5234  1.36286
11.5424  0.701586
11.5614  0.270201
11.5804  0.353445
11.5994  0.486736
11.6184  0.283559
11.6374  0.0177625
11.6564  -0.0915585
11.6754  -0.176874
11.6944  -0.509359
11.7134  -0.676118
11.7324  -0.678596
11.7515  -0.423658
11.7705  -0.154594
11.7895  -0.704857
11.8085  -1.2514
11.8275  -1.31327
11.8465  -0.977722
11.8655  -0.399954
11.8845  0.177021
11.9035  0.520914
11.9225  0.583757
11.9415  0.706211
11.9605  1.35899
11.9795  2.51041
11.9985  3.86466
12.0175  5.00443
12.0365  6.26017
12.0555  7.47016
12.0745  8.73694
12.0935  9.93655
12.1125  10.6578
12.1315  11.5308
12.1505  11.9949
12.1695  12.8306
12.1885  13.7241
12.2075  15.7971
12.2265  17.8977
12.2455  20.5562
12.2645  24.0883
12.2835  28.4694
12.3025  34.1103
12.3215  40.0685
12.3406  48.8945
12.3596  57.9686
12.3786  67.5046
12.3976  76.9497
12.4166  83.6777
12.4356  89.9367
12.4546  91.193
12.4736  89.4467
12.4926  86.7108
12.5116  81.3751
12.5306  74.0411
12.5496  69.1493
12.5686  63.1915
12.5876  57.7986
12.6066  52.4724
12.6256  48.1247
12.6446  45.1937
12.6636  42.3374
12.6826  40.0595
12.7016  38.2288
12.7206  37.2119
12.7396  36.1934
12.7586  35.3035
12.7776  35.1773
12.7966  35.099
12.8156  35.0277
12.8346  34.8991
12.8536  34.79
12.8726  34.536
12.8916  34.4455
12.9106  34.3315
12.9297  34.5515
12.9487  34.5206
12.9677  34.8334
12.9867  35.0559
13.0057  35.8391
13.0247  36.6914
13.0437  37.5333
13.0627  38.5612
13.0817  40.0064
13.1007  41.7397
13.1197  43.7655
13.1387  45.9226
13.1577  48.3195
13.1767  50.9221
13.1957  53.9111
13.2147  57.1486
13.2337  59.2742
13.2527  60.2859
13.2717  59.8263
13.2907  57.1272
13.3097  51.766
13.3287  44.6299
13.3477  37.6894
13.3667  30.6312
13.3857  24.8618
13.4047  19.0603
13.4237  14.0456
13.4427  10.4764
13.4617  7.81882
13.4807  5.60845
13.4998  3.86626
13.5188  2.50719
13.5378  1.51714
13.5568  0.628763
13.5758  -0.228848
13.5948  -0.189789
13.6138  -0.355624
13.6328  0.26586
13.6518  0.478017
13.6708  0.884292
13.6898  0.951875
13.7088  0.949799
13.7278  0.660652
13.7468  1.02091
13.7658  1.63872
13.7848  2.24865
13.8038  3.13052
13.8228  3.79981
13.8418  4.59481
13.8608  4.76823
13.8798  5.69254
13.8988  6.40198
13.9178  7.30947
13.9368  7.76778
13.9558  8.07106
13.9748  7.71626
13.9938  7.20856
14.0128  6.89208
14.0318  6.71839
14.0508  6.8141
14.0698  6.94475
14.0889  7.0369
14.1079  6.99089
14.1269  6.52948
14.1459  6.24846
14.1649  5.76612
14.1839  4.84374
14.2029  3.54857
14.2219  2.35169
14.2409  1.50981
14.2599  0.766102
14.2789  0.0967693
14.2979  -0.0733473
14.3169  -0.047841
14.3359  0.0452493
14.3549  -0.219261
14.3739  -0.465068
14.3929  -0.418948
14.4119  -0.210624
14.4309  -0.285024
14.4499  -0.502426
14.4689  -0.451823
14.4879  -0.0551283
14.5069  0.366025
14.5259  0.364757
14.5449  0.232896
14.5639  0.0356782
14.5829  -0.259351
14.6019  -0.135985
14.6209  0.232663
14.6399  0.288013
14.6589  0.276884
14.678  0.455948
14.697  0.620372
14.716  0.572316
14.735  0.746458
14.754  0.65594
14.773  0.349416
14.792  0.214516
14.811  0.222961
14.83  0.322665
14.849  0.504449
14.868  0.93997
14.887  0.997828
14.906  1.02618
14.925  0.690036
14.944  0.673932
14.963  0.519715
14.982  0.322594
15.001  0.110724
15.02  -0.0541766
15.039  0.0115485
15.058  -0.00421295
15.077  -0.00448244
15.096  0.206078
15.115  0.0943822
15.134  0.217827
15.153  0.0184821
15.172  0.103741
15.191  0.457202
15.21  0.776077
15.229  1.01136
15.2481  0.679859
15.2671  0.349308
15.2861  0.177494
15.3051  0.25458
15.3241  0.4044
15.3431  0.773141
15.3621  0.942701
15.3811  1.20598
15.4001  1.62251
15.4191  1.64688
15.4381  1.52679
15.4571  1.55385
15.4761  2.35859
15.4951  2.92306
15.5141  3.41803
15.5331  3.97715
15.5521  4.55098
15.5711  4.8946
15.5901  5.63511
15.6091  6.67994
15.6281  7.73811
15.6471  8.82687
15.6661  10.4977
15.6851  12.5892
15.7041  14.9198
15.7231  17.4339
15.7421  20.2179
15.7611  22.8859
15.7801  24.6825
15.7991  26.0329
15.8181  26.6196
15.8372  26.6893
15.8562  26.1917
15.8752  25.6234
15.8942  25.2673
15.9132  25.0235
15.9322  24.775
15.9512  24.7519
15.9702  25.1713
15.9892  25.8469
16.0082  26.24
16.0272  26.7272
16.0462  27.4015
16.0652  27.6608
16.0842  27.6377
16.1032  27.6365
16.1222  28.1824
16.1412  28.7949
16.1602  29.0336
16.1792  28.7845
16.1982  28.4207
16.2172  27.805
16.2362  27.0346
16.2552  26.2514
16.2742  25.0116
16.2932  23.3552
16.3122  21.4592
16.3312  19.6337
16.3502  17.7641
16.3692  15.9266
16.3882  14.241
16.4073  12.5641
16.4263  11.1252
16.4453  9.7386
16.4643  8.84015
16.4833  7.93973
16.5023  6.85591
16.5213  5.8725
16.5403  5.29268
16.5593  4.85357
16.5783  4.24072
16.5973  3.58047
16.6163  2.93466
16.6353  2.70767
16.6543  2.28165
16.6733  2.23874
16.6923  1.99387
16.7113  2.00927
16.7303  1.70902
16.7493  1.46756
16.7683  0.982934
16.7873  0.917016
16.8063  0.85077
16.8253  1.01699
16.8443  0.945675
16.8633  1.01502
16.8823  0.922183
16.9013  0.803239
16.9203  0.500394
16.9393  0.41474
16.9583  0.543379
16.9773  0.524732
16.9964  0.438489
17.0154  0.417419
17.0344  0.761651
17.0534  0.682651
17.0724  0.656169
17.0914  0.32814
17.1104  0.471529
17.1294  0.884068
17.1484  1.6572
17.1674  2.23439
17.1864  2.76905
17.2054  3.09036
17.2244  3.42492
17.2434  3.75518
17.2624  4.43444
17.2814  5.33493
17.3004  6.29096
17.3194  7.52965
17.3384  8.82792
17.3574  10.2882
17.3764  12.1923
17.3954  14.6234
17.4144  17.8215
17.4334  20.8188
17.4524  23.9554
17.4714  27.6917
17.4904  31.7759
17.5094  36.3277
17.5284  41.221
17.5474  46.4527
17.5664  51.6445
17.5855  56.3101
17.6045  61.336
17.6235  65.6961
17.6425  69.8752
17.6615  73.686
17.6805  76.5083
17.6995  78.5021
17.7185  78.567
17.7375  77.9742
17.7565  75.6753
17.7755  72.4345
17.7945  68.0854
17.8135  62.7359
17.8325  57.6757
17.8515  52.8992
17.8705  48.3596
17.8895  44.4108
17.9085  41.0353
17.9275  38.0378
17.9465  35.3549
17.9655  32.1317
17.9845  29.3346
18.0035  26.8258
18.0225  24.4996
18.0415  22.2295
18.0605  20.4678
18.0795  18.7178
18.0985  16.7645
18.1175  14.9392
18.1365  13.3691
18.1556  11.9092
18.1746  10.6045
18.1936  9.30043
18.2126  8.14012
18.2316  7.47775
18.2506  6.99872
18.2696  6.59019
18.2886  6.13481
18.3076  5.62312
18.3266  5.0313
18.3456  4.65204
18.3646  4.47223
18.3836  4.4595
18.4026  4.60643
18.4216  4.6951
18.4406  4.60317
18.4596  4.40584
18.4786  4.4099
18.4976  4.62027
18.5166  4.69873
18.5356  4.94429
18.5546  5.24144
18.5736  5.51916
18.5926  5.63021
18.6116  6.28847
18.6306  7.1638
18.6496  8.07558
18.6686  8.5804
18.6876  8.86322
18.7066  9.0287
18.7256  9.19346
18.7447  9.34896
18.7637  9.60978
18.7827  9.63129
18.8017  9.40326
18.8207  8.92224
18.8397  8.62675
18.8587  8.14945
18.8777  7.53122
18.8967  6.86553
18.9157  6.18179
18.9347  5.55506
18.9537  4.89263
18.9727  4.31936
18.9917  3.4829
19.0107  2.63679
19.0297  1.81846
19.0487  1.02199
19.0677  0.372247
19.0867  -0.141147
19.1057  -0.690241
19.1247  -0.76354
19.1437  -0.853637
19.1627  -0.581033
19.1817  -0.520606
19.2007  -0.290212
19.2197  0.226129
19.2387  0.968117
19.2577  1.67362
19.2767  2.36326
19.2957  3.0637
19.3148  3.73977
19.3338  4.58102
19.3528  5.39537
19.3718  5.98886
19.3908  6.37844
19.4098  6.84367
19.4288  8.01411
19.4478  9.28898
19.4668  12.1384
19.4858  14.2566
19.5048  19.3475
19.5238  22.588
19.5428  25.443
19.5618  26.7344
19.5808  28.1764
19.5998  26.6126
19.6188  25.7281
19.6378  23.6195
19.6568  20.7338
19.6758  16.9694
19.6948  13.6993
19.7138  10.2387
19.7328  8.5406
19.7518  6.76304
19.7708  5.38314
19.7898  4.425
19.8088  3.44514
19.8278  2.61033
19.8468  1.98764
19.8658  1.50138
19.8848  1.15361
19.9039  0.557593
19.9229  0.174816
19.9419  0.0889794
19.9609  0.107444
19.9799  -0.0188198
19.9989  -0.091863
20.0179  0.165541
20.0369  0.0974542
20.0559  0.0649523
20.0749  -0.172188
20.0939  -0.146247
20.1129  -0.104993
20.1319  0.0754553
20.1509  0.26557
20.1699  0.120533
20.1889  0.0980264
20.2079  0.115538
20.2269  0.294735
20.2459  0.23108
20.2649  0.193936
20.2839  0.23365
20.3029  0.393223
20.3219  0.53585
20.3409  0.678665
20.3599  0.803274
20.3789  0.839676
20.3979  0.84965
20.4169  0.666321
20.4359  0.157653
20.4549  -0.00276529
20.4739  0.121617
20.493  0.222246
20.512  0.301114
20.531  0.00613111
20.55  0.0347453
20.569  0.0520356
20.588  0.0577025
20.607  0.0652229
20.626  -0.00811338
20.645  0.0176017
20.664  -0.115209
20.683  -0.00607013
20.702  0.137759
20.721  0.411829
20.74  0.496418
20.759  0.402589
20.778  0.459995
20.797  0.59299
20.816  0.919882
20.835  1.03368
20.854  0.984941
20.873  0.847035
20.892  0.665286
20.911  0.532441
20.93  0.461748
20.949  0.688935
20.968  0.753275
20.987  0.565757
21.006  0.387152
21.025  0.4912
21.044  0.539212
21.0631  0.342831
21.0821  0.0923704
21.1011  0.174857
21.1201  0.397074
21.1391  0.624586
21.1581  0.480502
21.1771  0.237957
21.1961  0.139897
21.2151  0.393158
21.2341  0.360805
21.2531  0.279845
21.2721  0.446243
21.2911  0.736414
21.3101  0.639817
21.3291  0.159255
21.3481  -0.081514
21.3671  0.0616966
21.3861  0.217719
21.4051  0.282309
21.4241  0.115221
21.4431  0.0488948
21.4621  0.135756
21.4811  0.16402
21.5001  0.0160141
21.5191  -0.136883
21.5381  0.0105403
21.5571  0.19042
21.5761  0.375153
21.5951  0.258306
21.6141  0.121727
21.6331  0.146814
21.6522  0.159628
21.6712  0.0294235
21.6902  -0.0493347
21.7092  0.0122455
21.7282  0.150774
21.7472  0.0533984
21.7662  0.0466492
21.7852  0.0157648
21.8042  0.0579481
21.8232  0.0457275
21.8422  -0.0640037
21.8612  -0.133671
21.8802  -0.0768706
21.8992  -0.0387939
21.9182  0.061226
21.9372  0.132401
21.9562  0.0781689
21.9752  0.0524594
21.9942  -0.0875126
22.0132  -0.139985
22.0322  0.0892365