File: data/processed/Run2_XRD/6_ReMoB2_470psi_39p0GPa_S_P1_C1_D1w_043.dat
2.93393  0.659486
2.95294  0.264433
2.97194  -0.207152
2.99094  0.0412622
3.00995  0.345368
3.02895  0.912919
3.04795  0.990557
3.06696  0.851924
3.08596  0.748111
3.10496  0.662423
3.12397  1.04883
3.14297  1.48789
3.16197  1.14154
3.18098  1.11812
3.19998  0.739555
3.21898  0.877356
3.23799  1.4308
3.25699  1.42654
3.27599  0.720248
3.295  0.854114
3.314  1.40986
3.333  2.14034
3.35201  3.05142
3.37101  3.92795
3.39001  5.25866
3.40902  7.20626
3.42802  10.7389
3.44702  15.468
3.46603  21.6636
3.48503  27.3538
3.50403  30.1607
3.52304  27.671
3.54204  21.3043
3.56104  13.2634
3.58005  7.40167
3.59905  3.80417
3.61805  2.36465
3.63706  1.92379
3.65606  1.40928
3.67506  1.27866
3.69407  0.919578
3.71307  1.21704
3.73207  1.01956
3.75108  0.6378
3.77008  1.04121
3.78908  0.984342
3.80808  0.720234
3.82709  0.464773
3.84609  0.288209
3.86509  0.508473
3.8841  0.193206
3.9031  -0.0255847
3.9221  0.0535074
3.94111  0.0692258
3.96011  0.371525
3.97911  0.623832
3.99812  0.888796
4.01712  0.882387
4.03612  0.55694
4.05513  0.433141
4.07413  0.421447
4.09313  0.0797811
4.11214  0.18378
4.13114  0.566959
4.15014  0.715856
4.16915  0.613506
4.18815  0.39709
4.20715  0.53696
4.22616  0.666716
4.24516  0.539527
4.26416  0.723562
4.28317  1.09375
4.30217  1.46731
4.32117  1.49689
4.34018  1.93169
4.35918  1.8977
4.37818  1.78761
4.39719  1.54826
4.41619  0.786179
4.43519  0.476151
4.4542  0.419413
4.4732  1.04722
4.4922  1.2753
4.51121  1.05582
4.53021  0.204461
4.54921  -0.372056
4.56822  -0.185677
4.58722  0.388192
4.60622  0.560666
4.62523  1.171
4.64423  1.20812
4.66323  1.07934
4.68224  1.13304
4.70124  1.72828
4.72024  1.91679
4.73924  1.79732
4.75825  1.35222
4.77725  1.36302
4.79625  1.44599
4.81526  0.838299
4.83426  0.695863
4.85326  0.386596
4.87227  0.391797
4.89127  0.322184
4.91027  0.441391
4.92928  1.0497
4.94828  1.23981
4.96728  0.942964
4.98629  0.655607
5.00529  0.245428
5.02429  -0.202522
5.0433  -0.341583
5.0623  -0.154449
5.0813  0.111477
5.10031  0.227052
5.11931  0.0273382
5.13831  0.177363
5.15732  0.470551
5.17632  0.371907
5.19532  0.249546
5.21433  0.172496
5.23333  0.220663
5.25233  0.380174
5.27134  0.454396
5.29034  0.513067
5.30934  0.327143
5.32835  0.171761
5.34735  0.158113
5.36635  0.241927
5.38536  0.70557
5.40436  0.620114
5.42336  0.664944
5.44237  0.432279
5.46137  0.703429
5.48037  0.427183
5.49938  0.291952
5.51838  0.449118
5.53738  0.448733
5.55639  0.280824
5.57539  0.15924
5.59439  0.0649942
5.6134  0.155496
5.6324  -0.147736
5.6514  -0.250902
5.67041  0.249387
5.68941  1.18116
5.70841  3.16568
5.72741  5.33397
5.74642  7.95323
5.76542  9.32732
5.78442  9.9736
5.80343  9.13638
5.82243  8.43052
5.84143  6.92644
5.86044  5.37021
5.87944  4.25516
5.89844  3.15997
5.91745  2.80186
5.93645  2.44984
5.95545  2.22904
5.97446  2.18133
5.99346  1.57696
6.01246  1.04565
6.03147  0.76857
6.05047  0.812252
6.06947  0.545866
6.08848  0.728772
6.10748  0.582205
6.12648  0.409325
6.14549  -0.0228614
6.16449  0.0722523
6.18349  0.358658
6.2025  0.343696
6.2215  0.61352
6.2405  1.27372
6.25951  1.90721
6.27851  2.95574
6.29751  3.84424
6.31652  5.22134
6.33552  7.08351
6.35452  12.1241
6.37353  18.9273
6.39253  29.6116
6.41153  35.9102
6.43054  37.8729
6.44954  31.187
6.46854  22.8806
6.48755  14.033
6.50655  8.78186
6.52555  5.77091
6.54456  4.32312
6.56356  3.62299
6.58256  3.62585
6.60157  4.24123
6.62057  5.91259
6.63957  8.12204
6.65857  10.3391
6.67758  11.8198
6.69658  12.1423
6.71558  11.6821
6.73459  10.6623
6.75359  9.77954
6.77259  9.14561
6.7916  8.88867
6.8106  9.89114
6.8296  11.9775
6.84861  15.6335
6.86761  20.991
6.88661  27.8541
6.90562  39.0305
6.92462  51.8539
6.94362  70.8328
6.96263  87.2575
6.98163  105.235
7.00063  113.594
7.01964  115.707
7.03864  101.732
7.05764  83.563
7.07665  61.0579
7.09565  43.3222
7.11465  30.0839
7.13366  20.745
7.15266  14.7426
7.17166  10.5379
7.19067  7.31469
7.20967  5.25596
7.22867  4.06302
7.24768  3.21303
7.26668  2.7283
7.28568  2.11144
7.30469  1.90922
7.32369  1.31388
7.34269  0.963284
7.3617  0.804122
7.3807  0.863401
7.3997  0.803862
7.41871  0.876865
7.43771  1.04543
7.45671  1.00924
7.47572  0.450178
7.49472  -0.0608628
7.51372  -0.191225
7.53273  0.158415
7.55173  0.436843
7.57073  0.593553
7.58973  0.348882
7.60874  0.240201
7.62774  0.136378
7.64674  -0.00807631
7.66575  -0.154016
7.68475  -0.125292
7.70375  -0.0673327
7.72276  0.124257
7.74176  0.453285
7.76076  0.801366
7.77977  1.05721
7.79877  0.858365
7.81777  0.682307
7.83678  0.568305
7.85578  0.673862
7.87478  0.830782
7.89379  0.481695
7.91279  0.279147
7.93179  0.0183955
7.9508  0.404733
7.9698  0.526718
7.9888  0.486944
8.00781  0.267883
8.02681  0.271944
8.04581  0.215463
8.06482  0.150958
8.08382  -0.0617454
8.10282  0.0629881
8.12183  0.392659
8.14083  0.871
8.15983  1.20835
8.17884  1.14967
8.19784  0.782508
8.21684  0.567855
8.23585  0.654563
8.25485  0.739745
8.27385  0.791322
8.29286  0.387962
8.31186  0.134533
8.33086  0.00678361
8.34987  0.0133215
8.36887  0.167306
8.38787  0.393722
8.40688  0.399839
8.42588  0.298072
8.44488  0.00963912
8.46389  0.000939911
8.48289  -0.0923765
8.50189  -0.0374006
8.52089  0.184393
8.5399  0.296977
8.5589  0.47321
8.5779  0.243239
8.59691  0.215601
8.61591  0.385647
8.63491  0.0980072
8.65392  0.251439
8.67292  0.453384
8.69192  0.864602
8.71093  0.609695
8.72993  0.407642
8.74893  0.226235
8.76794  0.48644
8.78694  0.366303
8.80594  0.271715
8.82495  0.193603
8.84395  0.154476
8.86295  -0.0331332
8.88196  -0.250975
8.90096  -0.329229
8.91996  -0.20459
8.93897  -0.156825
8.95797  0.297336
8.97697  0.795051
8.99598  1.06541
9.01498  1.29076
9.03398  1.74358
9.05299  2.49518
9.07199  3.72603
9.09099  4.71253
9.11  5.86082
9.129  7.59454
9.148  10.2956
9.16701  13.5708
9.18601  17.6113
9.20501  22.7721
9.22402  29.9551
9.24302  39.4402
9.26202  52.2486
9.28103  69.7573
9.30003  93.8981
9.31903  129.579
9.33804  178.514
9.35704  248.733
9.37604  332.483
9.39505  440.044
9.41405  558.423
9.43305  653.042
9.45206  699.679
9.47106  674.895
9.49006  623.399
9.50906  544.146
9.52807  472.577
9.54707  410.783
9.56607  362.441
9.58508  320.817
9.60408  287.023
9.62308  260.093
9.64209  237.846
9.66109  213.482
9.68009  187.428
9.6991  157.124
9.7181  128.823
9.7371  101.508
9.75611  79.5975
9.77511  61.3509
9.79411  47.4411
9.81312  36.2826
9.83212  27.8115
9.85112  21.2325
9.87013  16.1158
9.88913  12.2645
9.90813  8.9763
9.92714  6.42451
9.94614  4.85896
9.96514  3.42075
9.98415  2.13592
10.0031  1.15586
10.0222  0.527668
10.0412  0.0327633
10.0602  -0.525636
10.0792  -0.797957
10.0982  -0.748563
10.1172  -0.744767
10.1362  -0.292524
10.1552  -0.0270961
10.1742  0.276882
10.1932  0.601578
10.2122  1.04326
10.2312  1.41136
10.2502  1.77833
10.2692  2.05504
10.2882  2.65874
10.3072  3.49509
10.3262  4.6478
10.3452  5.79722
10.3642  6.85828
10.3832  8.51827
10.4022  10.9343
10.4212  13.9814
10.4402  17.6255
10.4592  20.9617
10.4782  23.953
10.4972  26.2805
10.5162  27.6979
10.5352  28.411
10.5542  28.9135
10.5732  29.1817
10.5923  28.8552
10.6113  27.7238
10.6303  26.187
10.6493  24.3989
10.6683  22.6229
10.6873  21.3228
10.7063  20.2821
10.7253  19.8434
10.7443  19.6298
10.7633  19.8517
10.7823  20.1765
10.8013  20.2383
10.8203  20.8666
10.8393  21.628
10.8583  22.571
10.8773  23.8402
10.8963  24.9316
10.9153  26.1136
10.9343  27.2221
10.9533  27.9978
10.9723  28.9995
10.9913  29.7185
11.0103  30.4546
11.0293  30.8531
11.0483  30.9485
11.0673  30.3753
11.0863  29.9568
11.1053  29.3532
11.1243  28.9054
11.1433  28.6296
11.1623  27.8258
11.1814  26.4067
11.2004  25.0358
11.2194  23.6474
11.2384  21.8866
11.2574  19.3587
11.2764  16.5307
11.2954  13.8293
11.3144  11.4462
11.3334  9.62435
11.3524  7.71157
11.3714  6.19778
11.3904  5.10297
11.4094  4.42235
11.4284  4.15671
11.4474  3.972
11.4664  3.34226
11.4854  2.62373
11.5044  2.19376
11.5234  1.95311
11.5424  1.72326
11.5614  1.44945
11.5804  1.18356
11.5994  1.19434
11.6184  1.24097
11.6374  0.905521
11.6564  0.476638
11.6754  0.429189
11.6944  0.600934
11.7134  0.582577
11.7324  0.295376
11.7515  0.159936
11.7705  -0.304834
11.7895  -0.489486
11.8085  -0.963517
11.8275  -0.793271
11.8465  -0.889271
11.8655  -0.965451
11.8845  -1.13871
11.9035  -0.876773
11.9225  -0.491927
11.9415  -0.699915
11.9605  -0.956897
11.9795  -0.674811
11.9985  0.0645812
12.0175  0.531641
12.0365  0.960169
12.0555  1.94855
12.0745  2.71827
12.0935  3.92909
12.1125  4.7657
12.1315  6.12129
12.1505  7.01867
12.1695  7.95013
12.1885  9.34121
12.2075  10.8649
12.2265  12.885
12.2455  14.1231
12.2645  16.1107
12.2835  17.9802
12.3025  21.321
12.3215  24.5524
12.3406  28.6793
12.3596  33.1852
12.3786  39.3121
12.3976  47.2413
12.4166  56.214
12.4356  67.6236
12.4546  78.2926
12.4736  92.9259
12.4926  103.099
12.5116  113.841
12.5306  121.628
12.5496  126.624
12.5686  128.707
12.5876  125.876
12.6066  116.773
12.6256  106.738
12.6446  95.1057
12.6636  84.2519
12.6826  76.1729
12.7016  67.522
12.7206  61.8652
12.7396  56.487
12.7586  52.5109
12.7776  49.132
12.7966  46.5741
12.8156  44.7313
12.8346  43.2083
12.8536  42.429
12.8726  41.2399
12.8916  40.4477
12.9106  39.7429
12.9297  39.3722
12.9487  39.0704
12.9677  38.54
12.9867  38.3957
13.0057  38.3315
13.0247  38.0304
13.0437  37.4907
13.0627  37.2869
13.0817  37.2735
13.1007  38.0057
13.1197  38.9027
13.1387  39.8301
13.1577  41.6768
13.1767  43.8897
13.1957  47.3113
13.2147  51.4926
13.2337  56.7545
13.2527  65.2375
13.2717  76.0093
13.2907  89.7891
13.3097  104.492
13.3287  115.516
13.3477  121.74
13.3667  116.864
13.3857  103.729
13.4047  83.1096
13.4237  64.5647
13.4427  48.086
13.4617  36.6973
13.4807  28.2813
13.4998  21.5007
13.5188  15.808
13.5378  11.6046
13.5568  7.58002
13.5758  5.09804
13.5948  3.25196
13.6138  2.05642
13.6328  1.12222
13.6518  0.281714
13.6708  -0.31605
13.6898  -0.0372815
13.7088  0.173092
13.7278  0.789674
13.7468  0.849933
13.7658  1.257
13.7848  1.43761
13.8038  2.10645
13.8228  2.43675
13.8418  2.94931
13.8608  2.70757
13.8798  3.30248
13.8988  3.34029
13.9178  3.96951
13.9368  4.3934
13.9558  5.11565
13.9748  5.74031
13.9938  6.16361
14.0128  6.14215
14.0318  6.3762
14.0508  6.7179
14.0698  7.30918
14.0889  7.70827
14.1079  8.09718
14.1269  8.2274
14.1459  8.27436
14.1649  7.76708
14.1839  7.34744
14.2029  6.18645
14.2219  4.94868
14.2409  3.64096
14.2599  2.70458
14.2789  1.87824
14.2979  1.29217
14.3169  0.843927
14.3359  0.933379
14.3549  0.567181
14.3739  0.0553713
14.3929  -0.54668
14.4119  -0.660518
14.4309  -0.394792
14.4499  -0.114007
14.4689  -0.0786764
14.4879  -0.382837
14.5069  -0.486149
14.5259  -0.488604
14.5449  -0.561751
14.5639  -0.487193
14.5829  -0.195378
14.6019  -0.0298324
14.6209  0.0593999
14.6399  0.0496329
14.6589  0.215822
14.678  0.277169
14.697  0.658123
14.716  0.687597
14.735  0.888029
14.754  0.288551
14.773  0.454878
14.792  0.359379
14.811  0.665316
14.83  0.672151
14.849  0.733804
14.868  0.417389
14.887  0.215076
14.906  0.381631
14.925  0.53735
14.944  0.671975
14.963  0.331215
14.982  0.0106061
15.001  0.246694
15.02  0.538342
15.039  0.502796
15.058  0.252787
15.077  0.151185
15.096  0.182226
15.115  0.204688
15.134  0.530116
15.153  0.549046
15.172  0.572432
15.191  0.26669
15.21  0.0639598
15.229  -0.0940619
15.2481  0.0190277
15.2671  0.20465
15.2861  0.177302
15.3051  -0.0398726
15.3241  0.21199
15.3431  0.561622
15.3621  0.592006
15.3811  0.213997
15.4001  0.135002
15.4191  0.490614
15.4381  0.77629
15.4571  1.18834
15.4761  1.75759
15.4951  1.86184
15.5141  1.86109
15.5331  1.55897
15.5521  1.55542
15.5711  1.83476
15.5901  2.40933
15.6091  3.2292
15.6281  3.43067
15.6471  3.72534
15.6661  3.99374
15.6851  4.69281
15.7041  5.19698
15.7231  5.80865
15.7421  6.23006
15.7611  7.32792
15.7801  8.38338
15.7991  9.7233
15.8181  11.1099
15.8372  12.4804
15.8562  13.889
15.8752  15.8396
15.8942  18.0625
15.9132  19.7229
15.9322  20.7938
15.9512  21.2838
15.9702  21.6092
15.9892  21.214
16.0082  20.8748
16.0272  20.8286
16.0462  21.1483
16.0652  21.9358
16.0842  22.9211
16.1032  24.14
16.1222  25.3793
16.1412  26.0974
16.1602  26.9588
16.1792  27.6172
16.1982  28.4652
16.2172  29.1089
16.2362  29.3445
16.2552  29.4523
16.2742  29.0736
16.2932  28.9543
16.3122  28.1991
16.3312  27.08
16.3502  26.0792
16.3692  25.3242
16.3882  24.4344
16.4073  22.8556
16.4263  21.0516
16.4453  19.2679
16.4643  17.728
16.4833  15.9386
16.5023  13.8638
16.5213  11.9766
16.5403  10.469
16.5593  9.584
16.5783  8.50993
16.5973  7.42924
16.6163  6.05702
16.6353  5.21665
16.6543  4.72165
16.6733  4.44352
16.6923  4.0746
16.7113  3.8276
16.7303  3.60385
16.7493  3.31004
16.7683  3.03483
16.7873  2.91346
16.8063  2.34668
16.8253  1.89273
16.8443  1.49861
16.8633  1.27185
16.8823  1.36273
16.9013  1.4428
16.9203  1.48855
16.9393  1.2496
16.9583  1.07051
16.9773  0.866357
16.9964  0.84027
17.0154  0.901649
17.0344  0.941665
17.0534  0.703498
17.0724  0.298719
17.0914  0.401833
17.1104  0.65092
17.1294  0.983076
17.1484  1.04581
17.1674  1.29786
17.1864  1.56799
17.2054  1.7775
17.2244  1.85089
17.2434  2.0403
17.2624  2.14175
17.2814  2.35493
17.3004  2.61724
17.3194  3.29493
17.3384  3.79838
17.3574  4.4158
17.3764  4.98288
17.3954  5.87787
17.4144  6.70664
17.4334  7.49855
17.4524  8.60153
17.4714  9.99201
17.4904  11.2924
17.5094  13.1302
17.5284  15.4483
17.5474  18.1609
17.5664  20.9491
17.5855  24.0398
17.6045  28.0825
17.6235  32.4467
17.6425  36.8304
17.6615  42.478
17.6805  48.5982
17.6995  55.301
17.7185  61.8634
17.7375  68.6706
17.7565  75.5624
17.7755  82.1131
17.7945  87.561
17.8135  91.437
17.8325  93.0203
17.8515  92.0436
17.8705  88.8015
17.8895  83.5287
17.9085  77.6699
17.9275  71.7446
17.9465  66.7863
17.9655  61.7858
17.9845  56.8977
18.0035  52.3018
18.0225  48.5128
18.0415  44.4916
18.0605  40.8244
18.0795  37.1226
18.0985  33.8193
18.1175  30.4286
18.1365  27.3648
18.1556  24.0853
18.1746  20.9409
18.1936  18.415
18.2126  16.1146
18.2316  14.1822
18.2506  12.4711
18.2696  11.2005
18.2886  9.80211
18.3076  8.49768
18.3266  7.50615
18.3456  6.84429
18.3646  6.25484
18.3836  5.36497
18.4026  4.68416
18.4216  4.19257
18.4406  3.85508
18.4596  3.36712
18.4786  2.89846
18.4976  2.69577
18.5166  2.58932
18.5356  2.38229
18.5546  2.42661
18.5736  2.26151
18.5926  1.94215
18.6116  1.70375
18.6306  2.23631
18.6496  2.86169
18.6686  3.34022
18.6876  3.47098
18.7066  3.96968
18.7256  4.63078
18.7447  5.40369
18.7637  6.37963
18.7827  6.98064
18.8017  7.43181
18.8207  7.93398
18.8397  8.63223
18.8587  9.15449
18.8777  9.84988
18.8967  10.728
18.9157  11.3365
18.9347  11.6669
18.9537  11.9894
18.9727  12.4356
18.9917  12.1925
19.0107  11.5106
19.0297  10.3149
19.0487  9.21197
19.0677  7.61146
19.0867  6.24396
19.1057  4.74873
19.1247  3.47013
19.1437  2.06695
19.1627  1.1848
19.1817  0.323695
19.2007  -0.279404
19.2197  -0.582611
19.2387  -0.582262
19.2577  -0.702112
19.2767  -0.742439
19.2957  -0.700816
19.3148  -0.553853
19.3338  -0.261748
19.3528  -0.0847384
19.3718  0.288872
19.3908  0.61314
19.4098  1.13839
19.4288  1.7673
19.4478  2.33484
19.4668  3.10063
19.4858  3.53974
19.5048  4.4759
19.5238  5.26944
19.5428  6.61389
19.5618  7.40824
19.5808  9.65022
19.5998  11.5674
19.6188  13.9789
19.6378  15.9594
19.6568  17.3997
19.6758  18.7118
19.6948  19.6102
19.7138  19.8056
19.7328  19.551
19.7518  18.1778
19.7708  16.8079
19.7898  14.5407
19.8088  12.3891
19.8278  10.1067
19.8468  8.59252
19.8658  7.02154
19.8848  5.46542
19.9039  3.96839
19.9229  2.96482
19.9419  2.91151
19.9609  2.43931
19.9799  1.9442
19.9989  1.36388
20.0179  1.05004
20.0369  1.00523
20.0559  0.831884
20.0749  0.640307
20.0939  0.16783
20.1129  0.115779
20.1319  0.0865689
20.1509  -0.0171131
20.1699  0.0406372
20.1889  0.0486458
20.2079  -0.0522662
20.2269  0.0274897
20.2459  0.0964276
20.2649  0.195614
20.2839  0.298426
20.3029  0.453755
20.3219  0.386911
20.3409  0.365234
20.3599  0.195059
20.3789  0.420765
20.3979  0.379691
20.4169  0.166579
20.4359  -0.099899
20.4549  -0.000688686
20.4739  0.164993
20.493  0.158367
20.512  0.0405591
20.531  0.00710745
20.55  0.185515
20.569  0.218273
20.588  0.226556
20.607  0.0427872
20.626  -0.00827404
20.645  -0.132609
20.664  -0.0532968
20.683  0.026126
20.702  -0.0480025
20.721  0.0315334
20.74  0.0419949
20.759  0.122176
20.778  0.149453
20.797  0.14199
20.816  0.150228
20.835  0.28731
20.854  0.36528
20.873  0.487446
20.892  0.343172
20.911  0.354691
20.93  0.314645
20.949  0.738308
20.968  0.958136
20.987  1.0581
21.006  0.89708
21.025  0.696667
21.044  0.828859
21.0631  0.825546
21.0821  0.751017
21.1011  0.546829
21.1201  0.40798
21.1391  0.31382
21.1581  0.414089
21.1771  0.589209
21.1961  0.749604
21.2151  0.703981
21.2341  0.523715
21.2531  0.48417
21.2721  0.386693
21.2911  0.321527
21.3101  0.138159
21.3291  0.0391723
21.3481  0.0622611
21.3671  0.152458
21.3861  0.167203
21.4051  0.105063
21.4241  -0.0997316
21.4431  -0.0266896
21.4621  -0.0098846
21.4811  0.019236
21.5001  0.000999221
21.5191  0.115388
21.5381  0.165865
21.5571  0.212553
21.5761  0.124681
21.5951  0.00828763
21.6141  -0.0188388
21.6331  0.119575
21.6522  0.239093
21.6712  0.361569
21.6902  0.118566
21.7092  0.0557566
21.7282  -0.0925168
21.7472  0.0315887
21.7662  0.277525
21.7852  0.382658
21.8042  0.0668544
21.8232  -0.0904483
21.8422  -0.0509738
21.8612  0.137377
21.8802  -0.0751061
21.8992  -0.159712
21.9182  -0.0931754
21.9372  0.159498
21.9562  0.153705
21.9752  0.0468477
21.9942  -0.161288
22.0132  -0.0224316
22.0322  0.0400988