File: data/processed/Run2_XRD/7_ReMoB2_490psi_45p0GPa_S_P1_C1_D1w_049.dat
2.93393  0.576175
2.95294  0.075878
2.97194  0.478628
2.99094  0.49033
3.00995  0.786068
3.02895  0.163439
3.04795  0.0125508
3.06696  -0.0779465
3.08596  0.765226
3.10496  1.32951
3.12397  1.26647
3.14297  0.98096
3.16197  0.308112
3.18098  0.421466
3.19998  0.84204
3.21898  1.12844
3.23799  1.31288
3.25699  0.84097
3.27599  0.765009
3.295  0.185554
3.314  0.964775
3.333  1.48157
3.35201  2.12571
3.37101  2.60072
3.39001  3.74198
3.40902  5.20106
3.42802  7.67829
3.44702  12.1607
3.46603  19.5542
3.48503  27.9608
3.50403  33.26
3.52304  32.8749
3.54204  27.8273
3.56104  19.3555
3.58005  12.0889
3.59905  7.1224
3.61805  4.2162
3.63706  2.91658
3.65606  2.33129
3.67506  1.93997
3.69407  1.8072
3.71307  1.14
3.73207  1.2849
3.75108  1.22927
3.77008  1.62264
3.78908  1.34867
3.80808  0.760962
3.82709  0.436226
3.84609  -0.137428
3.86509  0.266338
3.8841  0.250586
3.9031  0.386879
3.9221  0.136563
3.94111  0.258045
3.96011  0.483397
3.97911  0.673827
3.99812  0.659647
4.01712  0.769201
4.03612  0.77896
4.05513  0.51901
4.07413  0.219948
4.09313  0.122014
4.11214  0.383119
4.13114  0.771698
4.15014  0.898649
4.16915  0.832327
4.18815  0.84307
4.20715  0.964409
4.22616  1.09056
4.24516  1.05702
4.26416  0.849353
4.28317  0.839435
4.30217  0.944973
4.32117  1.22565
4.34018  0.880217
4.35918  0.542046
4.37818  0.285465
4.39719  0.0446653
4.41619  0.218003
4.43519  0.186041
4.4542  0.626704
4.4732  0.975784
4.4922  1.0862
4.51121  1.2557
4.53021  0.922523
4.54921  0.839784
4.56822  1.07558
4.58722  1.16575
4.60622  1.08144
4.62523  1.13442
4.64423  0.633578
4.66323  0.648027
4.68224  0.460485
4.70124  0.131985
4.72024  0.202802
4.73924  0.659599
4.75825  0.522345
4.77725  0.0515761
4.79625  -0.304556
4.81526  0.385507
4.83426  0.419152
4.85326  0.356001
4.87227  0.160616
4.89127  0.347663
4.91027  0.52846
4.92928  0.318314
4.94828  0.529857
4.96728  0.756822
4.98629  0.758066
5.00529  0.456025
5.02429  0.0732362
5.0433  -0.113317
5.0623  -0.0532926
5.0813  0.312171
5.10031  0.802284
5.11931  1.32801
5.13831  1.3553
5.15732  1.47292
5.17632  1.22178
5.19532  0.701896
5.21433  0.138792
5.23333  0.400394
5.25233  0.811102
5.27134  0.805286
5.29034  0.538214
5.30934  0.264977
5.32835  -0.0466823
5.34735  0.439952
5.36635  1.06943
5.38536  1.40028
5.40436  1.0181
5.42336  0.385657
5.44237  0.169416
5.46137  0.00629167
5.48037  -0.220672
5.49938  -0.0308303
5.51838  0.205271
5.53738  0.27945
5.55639  0.481534
5.57539  0.850993
5.59439  0.649901
5.6134  0.371674
5.6324  -0.0650954
5.6514  0.414648
5.67041  1.19002
5.68941  1.55045
5.70841  1.72856
5.72741  2.7055
5.74642  4.17928
5.76542  6.31185
5.78442  7.25676
5.80343  7.68737
5.82243  6.99146
5.84143  6.06866
5.86044  4.50719
5.87944  3.33566
5.89844  2.08511
5.91745  1.35884
5.93645  1.47667
5.95545  1.16174
5.97446  1.25775
5.99346  1.18486
6.01246  1.38546
6.03147  1.88084
6.05047  1.66548
6.06947  1.30569
6.08848  0.387782
6.10748  0.0612053
6.12648  0.328766
6.14549  0.321012
6.16449  0.195457
6.18349  -0.0989668
6.2025  0.0185449
6.2215  0.196788
6.2405  0.643396
6.25951  1.67657
6.27851  2.28986
6.29751  3.05189
6.31652  3.55181
6.33552  4.40905
6.35452  6.79713
6.37353  10.7948
6.39253  17.4978
6.41153  25.0046
6.43054  29.8189
6.44954  29.9891
6.46854  24.6588
6.48755  17.9056
6.50655  10.8165
6.52555  6.87201
6.54456  4.23259
6.56356  3.39422
6.58256  2.92867
6.60157  3.06477
6.62057  3.83028
6.63957  4.95706
6.65857  6.416
6.67758  8.29533
6.69658  11.2709
6.71558  14.0046
6.73459  15.1328
6.75359  14.2225
6.77259  12.6301
6.7916  10.8845
6.8106  9.87097
6.8296  9.69571
6.84861  11.0206
6.86761  13.7346
6.88661  17.4736
6.90562  24.2462
6.92462  33.3717
6.94362  49.871
6.96263  67.3612
6.98163  88.9835
7.00063  105.722
7.01964  115.788
7.03864  107.107
7.05764  94.8119
7.07665  75.0816
7.09565  57.619
7.11465  42.4195
7.13366  30.5665
7.15266  22.1627
7.17166  16.1267
7.19067  11.0709
7.20967  7.99479
7.22867  5.33643
7.24768  4.27239
7.26668  3.35082
7.28568  3.14774
7.30469  2.56965
7.32369  2.1164
7.34269  1.61731
7.3617  1.18574
7.3807  0.93148
7.3997  0.978
7.41871  1.36955
7.43771  1.62743
7.45671  0.867196
7.47572  0.357687
7.49472  0.243894
7.51372  0.223687
7.53273  -0.0483631
7.55173  -0.273009
7.57073  -0.0959731
7.58973  0.174887
7.60874  0.341475
7.62774  0.604181
7.64674  0.656926
7.66575  0.39389
7.68475  0.230975
7.70375  0.195914
7.72276  0.31918
7.74176  0.586131
7.76076  0.712463
7.77977  0.641732
7.79877  0.766119
7.81777  0.676579
7.83678  0.33003
7.85578  0.109407
7.87478  0.206337
7.89379  0.268433
7.91279  -0.0511551
7.93179  -0.1174
7.9508  0.289196
7.9698  0.579076
7.9888  0.345467
8.00781  0.290523
8.02681  0.364486
8.04581  0.282986
8.06482  0.400871
8.08382  0.274885
8.10282  0.453039
8.12183  0.437103
8.14083  0.664052
8.15983  0.252832
8.17884  0.0485229
8.19784  0.175541
8.21684  0.105639
8.23585  0.148917
8.25485  0.0367244
8.27385  0.0659531
8.29286  0.258367
8.31186  0.489146
8.33086  0.530713
8.34987  0.674085
8.36887  0.571974
8.38787  0.344819
8.40688  0.797146
8.42588  0.615458
8.44488  0.597306
8.46389  0.0264713
8.48289  -0.131458
8.50189  -0.150993
8.52089  0.0363171
8.5399  0.118689
8.5589  -0.0943449
8.5779  -0.0196861
8.59691  -0.0159685
8.61591  0.39046
8.63491  0.707733
8.65392  1.1046
8.67292  0.994317
8.69192  0.981597
8.71093  0.376218
8.72993  0.349442
8.74893  0.343086
8.76794  0.681688
8.78694  0.166104
8.80594  -0.252692
8.82495  -0.252104
8.84395  0.0955552
8.86295  0.0736319
8.88196  0.246415
8.90096  0.558939
8.91996  0.768518
8.93897  0.955528
8.95797  1.03035
8.97697  0.887128
8.99598  0.837159
9.01498  0.943534
9.03398  1.58782
9.05299  2.00933
9.07199  2.82199
9.09099  4.17649
9.11  5.739
9.129  7.35716
9.148  9.58512
9.16701  12.3104
9.18601  15.4022
9.20501  19.0092
9.22402  23.6092
9.24302  29.0492
9.26202  35.8235
9.28103  43.9161
9.30003  54.1293
9.31903  68.9519
9.33804  88.801
9.35704  116.307
9.37604  154.482
9.39505  204.796
9.41405  274.13
9.43305  351.61
9.45206  433.553
9.47106  495.397
9.49006  535.521
9.50906  544.913
9.52807  530.715
9.54707  502.935
9.56607  466.039
9.58508  419.17
9.60408  366.695
9.62308  320.564
9.64209  281.449
9.66109  249.971
9.68009  223.338
9.6991  197.377
9.7181  172.932
9.7371  147.426
9.75611  123.745
9.77511  100.506
9.79411  79.7602
9.81312  62.2826
9.83212  49.0081
9.85112  38.3086
9.87013  30.1093
9.88913  23.4975
9.90813  18.4232
9.92714  14.1351
9.94614  10.7582
9.96514  7.9796
9.98415  5.88426
10.0031  4.5743
10.0222  3.4304
10.0412  2.49887
10.0602  1.578
10.0792  0.931855
10.0982  0.413175
10.1172  -0.239314
10.1362  -0.771948
10.1552  -0.935087
10.1742  -0.952189
10.1932  -0.428638
10.2122  -0.255361
10.2312  -0.186488
10.2502  -0.0711543
10.2692  -0.210044
10.2882  -0.0475709
10.3072  0.268872
10.3262  1.05612
10.3452  1.64986
10.3642  2.51882
10.3832  3.20029
10.4022  3.96133
10.4212  5.05835
10.4402  7.09608
10.4592  10.0114
10.4782  12.927
10.4972  15.4939
10.5162  17.6609
10.5352  20.2205
10.5542  22.9043
10.5732  25.0144
10.5923  26.298
10.6113  27.6198
10.6303  28.8656
10.6493  29.2793
10.6683  28.1518
10.6873  26.5515
10.7063  24.6966
10.7253  22.8302
10.7443  21.1193
10.7633  19.4487
10.7823  18.952
10.8013  19.1039
10.8203  19.9656
10.8393  20.4753
10.8583  21.4423
10.8773  22.5725
10.8963  23.5316
10.9153  24.8339
10.9343  25.8543
10.9533  27.2024
10.9723  29.2035
10.9913  30.4376
11.0103  30.9757
11.0293  31.1526
11.0483  31.2799
11.0673  31.7877
11.0863  32.2822
11.1053  31.9775
11.1243  31.814
11.1433  31.7913
11.1623  31.6618
11.1814  30.7347
11.2004  30.0044
11.2194  29.9892
11.2384  30.2701
11.2574  30.4003
11.2764  30.1756
11.2954  30.3914
11.3144  29.713
11.3334  26.651
11.3524  21.3256
11.3714  17.3233
11.3904  14.594
11.4094  12.4626
11.4284  10.3746
11.4474  8.89208
11.4664  7.15598
11.4854  5.33777
11.5044  4.12037
11.5234  3.52071
11.5424  2.94371
11.5614  2.35509
11.5804  1.92526
11.5994  1.74359
11.6184  1.75384
11.6374  1.58606
11.6564  1.60629
11.6754  1.20597
11.6944  0.705932
11.7134  -0.124923
11.7324  -0.454887
11.7515  -0.387715
11.7705  -0.183448
11.7895  -0.637371
11.8085  -0.747427
11.8275  -0.515107
11.8465  -0.349441
11.8655  -0.652569
11.8845  -1.07187
11.9035  -0.995106
11.9225  -0.547937
11.9415  -0.139124
11.9605  0.181089
11.9795  -0.0327626
11.9985  0.414276
12.0175  0.995425
12.0365  2.05967
12.0555  2.81528
12.0745  3.71576
12.0935  4.26893
12.1125  5.09678
12.1315  6.28699
12.1505  7.70958
12.1695  9.10355
12.1885  10.032
12.2075  11.4032
12.2265  12.3703
12.2455  13.2484
12.2645  14.3845
12.2835  15.9285
12.3025  18.0948
12.3215  19.646
12.3406  21.7443
12.3596  24.0068
12.3786  26.225
12.3976  29.3479
12.4166  32.8275
12.4356  37.7996
12.4546  43.319
12.4736  51.2732
12.4926  59.6456
12.5116  69.865
12.5306  82.4307
12.5496  94.7864
12.5686  111.432
12.5876  123.037
12.6066  140.293
12.6256  147.973
12.6446  153.363
12.6636  149.713
12.6826  141.569
12.7016  125.802
12.7206  112.839
12.7396  94.5431
12.7586  80.564
12.7776  69.065
12.7966  59.9811
12.8156  53.9951
12.8346  49.0329
12.8536  45.7278
12.8726  42.9994
12.8916  41.6946
12.9106  40.0356
12.9297  38.9615
12.9487  38.3162
12.9677  37.36
12.9867  36.6583
13.0057  36.0071
13.0247  35.4122
13.0437  35.101
13.0627  34.6594
13.0817  34.3477
13.1007  33.5583
13.1197  33.4254
13.1387  33.036
13.1577  33.5428
13.1767  33.4761
13.1957  33.1604
13.2147  32.7276
13.2337  32.7593
13.2527  32.8459
13.2717  33.7451
13.2907  35.2575
13.3097  37.815
13.3287  40.6228
13.3477  43.8344
13.3667  47.9945
13.3857  52.3565
13.4047  56.5879
13.4237  59.2587
13.4427  60.1814
13.4617  58.1421
13.4807  53.2156
13.4998  46.0523
13.5188  38.2975
13.5378  30.5682
13.5568  23.9351
13.5758  18.144
13.5948  13.4949
13.6138  9.22109
13.6328  6.45724
13.6518  4.06216
13.6708  2.60415
13.6898  1.02396
13.7088  0.0668301
13.7278  -0.410483
13.7468  -0.596474
13.7658  -0.141597
13.7848  0.204413
13.8038  0.407601
13.8228  0.725548
13.8418  1.13249
13.8608  1.6311
13.8798  2.0524
13.8988  2.27569
13.9178  2.54672
13.9368  2.94287
13.9558  3.25537
13.9748  3.84152
13.9938  4.55596
14.0128  5.41999
14.0318  5.90366
14.0508  6.4242
14.0698  7.34618
14.0889  8.48019
14.1079  9.6764
14.1269  11.0671
14.1459  12.5587
14.1649  13.7336
14.1839  14.7611
14.2029  15.0854
14.2219  14.7189
14.2409  13.9289
14.2599  12.4879
14.2789  10.6021
14.2979  8.85638
14.3169  7.26508
14.3359  5.65462
14.3549  4.00889
14.3739  2.68129
14.3929  1.7009
14.4119  0.64769
14.4309  -0.110886
14.4499  -0.294707
14.4689  -0.557787
14.4879  -0.719782
14.5069  -1.01742
14.5259  -0.765568
14.5449  -0.685732
14.5639  -0.561122
14.5829  -0.432339
14.6019  -0.0166539
14.6209  0.0504421
14.6399  -0.0710468
14.6589  0.0833042
14.678  0.038123
14.697  0.128606
14.716  0.0668304
14.735  0.143889
14.754  0.457168
14.773  0.731905
14.792  0.454664
14.811  0.40679
14.83  0.433607
14.849  0.869083
14.868  0.756408
14.887  0.588808
14.906  0.364462
14.925  0.461724
14.944  0.644117
14.963  1.03643
14.982  0.855643
15.001  0.32177
15.02  -0.00766849
15.039  0.109074
15.058  0.35855
15.077  0.698091
15.096  0.808227
15.115  0.687673
15.134  0.335381
15.153  0.282229
15.172  0.339758
15.191  0.240994
15.21  -0.00094493
15.229  -0.173868
15.2481  -0.0872163
15.2671  0.102342
15.2861  0.226136
15.3051  0.145922
15.3241  0.0947872
15.3431  0.0885029
15.3621  -0.0329956
15.3811  -0.032598
15.4001  0.187116
15.4191  0.594957
15.4381  0.558236
15.4571  0.514984
15.4761  0.281728
15.4951  0.381761
15.5141  1.04834
15.5331  1.56874
15.5521  1.66591
15.5711  1.40673
15.5901  1.41774
15.6091  1.57388
15.6281  2.02946
15.6471  2.3887
15.6661  2.62688
15.6851  2.86769
15.7041  3.09619
15.7231  3.54305
15.7421  3.92001
15.7611  4.34167
15.7801  4.79497
15.7991  5.38454
15.8181  6.03334
15.8372  6.6566
15.8562  7.26266
15.8752  8.27059
15.8942  9.41866
15.9132  10.5221
15.9322  11.7353
15.9512  13.4833
15.9702  15.3309
15.9892  17.1006
16.0082  18.8706
16.0272  20.7133
16.0462  22.3889
16.0652  23.5087
16.0842  25.1844
16.1032  26.9623
16.1222  29.0994
16.1412  31.3883
16.1602  33.427
16.1792  34.1212
16.1982  33.202
16.2172  31.684
16.2362  30.4924
16.2552  30.3575
16.2742  30.5046
16.2932  30.4847
16.3122  30.6085
16.3312  31.2479
16.3502  31.5027
16.3692  31.5475
16.3882  30.9509
16.4073  30.4139
16.4263  29.7268
16.4453  29.0112
16.4643  28.0916
16.4833  26.6512
16.5023  24.9329
16.5213  22.7459
16.5403  20.3446
16.5593  18.0238
16.5783  15.9564
16.5973  14.1932
16.6163  12.4008
16.6353  11.0332
16.6543  9.65665
16.6733  8.76693
16.6923  7.83428
16.7113  6.92258
16.7303  5.86952
16.7493  5.47656
16.7683  5.06939
16.7873  4.57565
16.8063  4.03851
16.8253  3.49757
16.8443  3.04651
16.8633  2.48242
16.8823  2.62921
16.9013  2.436
16.9203  2.35232
16.9393  1.94261
16.9583  1.77179
16.9773  1.77911
16.9964  1.49037
17.0154  0.978633
17.0344  0.61271
17.0534  0.677975
17.0724  1.03325
17.0914  0.981833
17.1104  0.976918
17.1294  1.05544
17.1484  1.18089
17.1674  1.1131
17.1864  1.28358
17.2054  1.33609
17.2244  1.33418
17.2434  1.16583
17.2624  1.445
17.2814  1.5782
17.3004  1.73904
17.3194  2.02841
17.3384  2.64657
17.3574  3.07182
17.3764  3.54246
17.3954  4.04984
17.4144  4.4326
17.4334  4.44597
17.4524  4.62742
17.4714  5.25448
17.4904  5.87081
17.5094  6.58343
17.5284  7.42852
17.5474  8.30961
17.5664  9.33274
17.5855  10.4865
17.6045  11.5726
17.6235  12.9667
17.6425  15.4571
17.6615  18.114
17.6805  21.3106
17.6995  24.6771
17.7185  28.4912
17.7375  32.721
17.7565  38.1225
17.7755  44.0515
17.7945  49.6379
17.8135  54.9903
17.8325  60.2722
17.8515  65.3149
17.8705  69.3876
17.8895  72.1852
17.9085  74.4456
17.9275  75.961
17.9465  76.0296
17.9655  74.8889
17.9845  72.4576
18.0035  69.7652
18.0225  66.5743
18.0415  63.0295
18.0605  59.3266
18.0795  55.0441
18.0985  50.2055
18.1175  46.4152
18.1365  42.0404
18.1556  38.3863
18.1746  34.5792
18.1936  30.7817
18.2126  26.9969
18.2316  23.1075
18.2506  19.5013
18.2696  17.3114
18.2886  15.1714
18.3076  13.0474
18.3266  10.819
18.3456  9.27499
18.3646  8.04085
18.3836  7.08332
18.4026  6.07501
18.4216  5.30952
18.4406  4.64404
18.4596  4.066
18.4786  3.66558
18.4976  3.3213
18.5166  2.75407
18.5356  2.27662
18.5546  1.83397
18.5736  1.67883
18.5926  1.50959
18.6116  1.35828
18.6306  1.33506
18.6496  0.878262
18.6686  0.621478
18.6876  0.602746
18.7066  0.713913
18.7256  0.660032
18.7447  0.900296
18.7637  1.26557
18.7827  1.31056
18.8017  1.49606
18.8207  1.87265
18.8397  2.58313
18.8587  3.31347
18.8777  3.91677
18.8967  4.49701
18.9157  5.03861
18.9347  5.88033
18.9537  6.44209
18.9727  6.90508
18.9917  6.911
19.0107  6.82873
19.0297  6.27226
19.0487  5.9982
19.0677  5.53764
19.0867  5.33147
19.1057  4.77209
19.1247  4.15229
19.1437  3.36132
19.1627  3.02205
19.1817  2.5765
19.2007  1.89695
19.2197  1.41057
19.2387  0.912571
19.2577  0.471573
19.2767  0.0461308
19.2957  -0.19573
19.3148  -0.448739
19.3338  -0.695344
19.3528  -0.744084
19.3718  -0.618208
19.3908  -0.284746
19.4098  -0.313768
19.4288  -0.38656
19.4478  -0.238027
19.4668  0.205883
19.4858  0.44761
19.5048  0.813066
19.5238  1.30028
19.5428  1.77556
19.5618  2.22204
19.5808  2.87679
19.5998  3.60219
19.6188  4.53559
19.6378  5.46689
19.6568  6.87173
19.6758  8.16164
19.6948  9.86986
19.7138  12.1305
19.7328  13.8577
19.7518  15.305
19.7708  16.1376
19.7898  16.5502
19.8088  16.3036
19.8278  15.4246
19.8468  14.5432
19.8658  12.8589
19.8848  11.2444
19.9039  9.63104
19.9229  8.42841
19.9419  7.43349
19.9609  6.24271
19.9799  4.91987
19.9989  3.91038
20.0179  3.34752
20.0369  2.8044
20.0559  2.11913
20.0749  1.63428
20.0939  1.2619
20.1129  1.09393
20.1319  0.982966
20.1509  0.85352
20.1699  0.573117
20.1889  0.494794
20.2079  0.307577
20.2269  0.192389
20.2459  0.16671
20.2649  0.195432
20.2839  0.00916833
20.3029  -0.0105992
20.3219  -0.0129062
20.3409  0.111078
20.3599  0.196119
20.3789  0.244971
20.3979  0.23928
20.4169  0.0494605
20.4359  -0.00595323
20.4549  0.113724
20.4739  0.25716
20.493  0.275138
20.512  0.260553
20.531  0.0922326
20.55  0.137457
20.569  0.279903
20.588  0.17922
20.607  -0.00863296
20.626  -0.0684825
20.645  -0.00884215
20.664  0.229244
20.683  0.395971
20.702  0.328059
20.721  0.104615
20.74  0.122848
20.759  0.202497
20.778  0.0594854
20.797  0.0727471
20.816  0.260371
20.835  0.207548
20.854  -0.0177087
20.873  -0.0805496
20.892  0.12435
20.911  0.387252
20.93  0.333329
20.949  0.150368
20.968  0.136098
20.987  0.43056
21.006  0.494815
21.025  0.703817
21.044  0.750445
21.0631  0.620303
21.0821  0.58671
21.1011  0.410841
21.1201  0.287545
21.1391  0.175603
21.1581  0.283396
21.1771  0.353028
21.1961  0.710373
21.2151  0.920755
21.2341  0.82982
21.2531  0.605294
21.2721  0.501936
21.2911  0.696804
21.3101  0.437716
21.3291  0.18165
21.3481  -0.065098
21.3671  -0.0396174
21.3861  0.10039
21.4051  0.247596
21.4241  0.380636
21.4431  0.306598
21.4621  0.208271
21.4811  0.174335
21.5001  0.129228
21.5191  -0.0060412
21.5381  -0.00389183
21.5571  -0.0744929
21.5761  -0.0951412
21.5951  0.023305
21.6141  0.0928104
21.6331  0.0473453
21.6522  0.192703
21.6712  0.291291
21.6902  0.302713
21.7092  0.485481
21.7282  0.544588
21.7472  0.294527
21.7662  0.0119797
21.7852  -0.147083
21.8042  -0.0296258
21.8232  0.131832
21.8422  0.0610237
21.8612  0.025765
21.8802  -0.0631407
21.8992  -0.0606173
21.9182  -0.139816
21.9372  0.00852549
21.9562  0.117471
21.9752  0.115021
21.9942  -0.0414651
22.0132  -0.10888
22.0322  0.0483411