File: data/processed/Run2_XRD/8_ReMoB2_500psi_50p0GPa_S_P1_C1_D1w_055.dat
2.93393  0.549653
2.95294  0.248027
2.97194  0.230242
2.99094  0.173899
3.00995  0.348543
3.02895  0.330667
3.04795  -0.0894189
3.06696  -0.020436
3.08596  0.318863
3.10496  0.625037
3.12397  0.898952
3.14297  0.477238
3.16197  0.582946
3.18098  0.471463
3.19998  0.160439
3.21898  0.208843
3.23799  0.196052
3.25699  0.592323
3.27599  0.637267
3.295  0.889096
3.314  0.719107
3.333  0.984699
3.35201  1.03821
3.37101  1.47207
3.39001  1.96175
3.40902  3.2823
3.42802  6.46963
3.44702  11.3986
3.46603  18.4124
3.48503  27.0935
3.50403  33.6279
3.52304  35.4896
3.54204  30.9111
3.56104  21.0939
3.58005  12.842
3.59905  7.15144
3.61805  4.24709
3.63706  2.60269
3.65606  1.83141
3.67506  1.30195
3.69407  1.21928
3.71307  0.777179
3.73207  0.774444
3.75108  0.586928
3.77008  0.521592
3.78908  0.575734
3.80808  0.934425
3.82709  1.04855
3.84609  0.957434
3.86509  0.514183
3.8841  0.480342
3.9031  0.768259
3.9221  0.874189
3.94111  0.599745
3.96011  0.16265
3.97911  0.109859
3.99812  0.229321
4.01712  0.481836
4.03612  0.238634
4.05513  0.278408
4.07413  -0.0321091
4.09313  0.180903
4.11214  0.151752
4.13114  0.67678
4.15014  0.729592
4.16915  0.727879
4.18815  0.411235
4.20715  0.320655
4.22616  0.566824
4.24516  -0.0539325
4.26416  0.0955913
4.28317  0.344048
4.30217  0.509317
4.32117  0.300648
4.34018  -0.0353438
4.35918  0.115321
4.37818  0.449558
4.39719  1.22354
4.41619  1.64148
4.43519  1.51303
4.4542  1.33219
4.4732  1.0153
4.4922  0.994185
4.51121  0.834428
4.53021  0.874872
4.54921  0.392084
4.56822  0.272718
4.58722  -0.0119162
4.60622  -0.149641
4.62523  0.0492813
4.64423  -0.0243226
4.66323  0.330595
4.68224  0.423673
4.70124  0.192595
4.72024  0.111203
4.73924  0.418826
4.75825  0.600076
4.77725  0.739304
4.79625  0.525311
4.81526  0.603531
4.83426  0.334213
4.85326  0.209385
4.87227  0.409777
4.89127  0.236555
4.91027  0.0260321
4.92928  0.273998
4.94828  0.451919
4.96728  0.370953
4.98629  0.302878
5.00529  0.456663
5.02429  1.02079
5.0433  0.833246
5.0623  0.574893
5.0813  0.392154
5.10031  -0.271002
5.11931  -0.176832
5.13831  0.399542
5.15732  0.790433
5.17632  0.781089
5.19532  0.759887
5.21433  0.580434
5.23333  0.500396
5.25233  0.178315
5.27134  0.108643
5.29034  0.299985
5.30934  0.359648
5.32835  0.339846
5.34735  0.0506524
5.36635  0.0865951
5.38536  0.43374
5.40436  0.948418
5.42336  0.506912
5.44237  0.295277
5.46137  0.134433
5.48037  -0.193531
5.49938  -0.0598284
5.51838  0.130942
5.53738  0.310883
5.55639  0.210562
5.57539  0.163679
5.59439  0.55208
5.6134  0.665311
5.6324  0.655392
5.6514  0.457353
5.67041  0.532825
5.68941  0.621854
5.70841  0.823444
5.72741  1.70258
5.74642  2.96956
5.76542  3.85329
5.78442  4.36401
5.80343  4.89998
5.82243  5.00468
5.84143  4.79483
5.86044  4.09394
5.87944  3.27938
5.89844  2.34044
5.91745  1.59481
5.93645  1.07834
5.95545  0.733276
5.97446  1.00648
5.99346  1.33838
6.01246  1.16935
6.03147  0.585862
6.05047  -0.145433
6.06947  -0.192538
6.08848  0.159652
6.10748  0.553875
6.12648  0.42983
6.14549  0.345779
6.16449  0.32511
6.18349  0.38847
6.2025  0.377948
6.2215  0.269828
6.2405  0.379871
6.25951  0.708137
6.27851  0.97208
6.29751  1.51227
6.31652  1.84298
6.33552  2.59933
6.35452  4.45328
6.37353  7.9294
6.39253  13.1841
6.41153  18.8892
6.43054  22.4713
6.44954  23.6824
6.46854  19.9615
6.48755  14.6388
6.50655  8.34549
6.52555  5.44436
6.54456  3.80601
6.56356  3.0477
6.58256  2.34231
6.60157  2.44463
6.62057  3.18939
6.63957  4.53793
6.65857  5.953
6.67758  7.56576
6.69658  9.80915
6.71558  12.1011
6.73459  13.8703
6.75359  14.3955
6.77259  13.9003
6.7916  12.312
6.8106  11.2915
6.8296  11.4944
6.84861  12.2977
6.86761  13.6025
6.88661  16.4636
6.90562  22.483
6.92462  30.9953
6.94362  45.61
6.96263  62.5321
6.98163  84.1307
7.00063  102.232
7.01964  114.351
7.03864  111.798
7.05764  102.903
7.07665  84.5225
7.09565  67.2411
7.11465  51.1557
7.13366  37.3271
7.15266  27.0895
7.17166  19.212
7.19067  13.2232
7.20967  9.67299
7.22867  6.56666
7.24768  4.84258
7.26668  3.73158
7.28568  3.09449
7.30469  2.61991
7.32369  2.3962
7.34269  2.08567
7.3617  1.37074
7.3807  0.911641
7.3997  0.834877
7.41871  1.01625
7.43771  1.1705
7.45671  1.28684
7.47572  1.0915
7.49472  0.787458
7.51372  0.580782
7.53273  0.814856
7.55173  1.25619
7.57073  1.02319
7.58973  0.921725
7.60874  0.635284
7.62774  -0.0379296
7.64674  -0.356556
7.66575  -0.105896
7.68475  0.250194
7.70375  0.484193
7.72276  0.687903
7.74176  0.673309
7.76076  0.87324
7.77977  0.785513
7.79877  0.957196
7.81777  0.773231
7.83678  0.39521
7.85578  0.299632
7.87478  0.60232
7.89379  0.6321
7.91279  0.601062
7.93179  0.942766
7.9508  1.15384
7.9698  0.936661
7.9888  0.621412
8.00781  0.380284
8.02681  0.562773
8.04581  0.105725
8.06482  -0.0966
8.08382  -0.102939
8.10282  0.123563
8.12183  0.396593
8.14083  0.489441
8.15983  0.445937
8.17884  0.144697
8.19784  -0.184693
8.21684  0.0244376
8.23585  0.209887
8.25485  0.585715
8.27385  0.507847
8.29286  0.558784
8.31186  0.307698
8.33086  0.254028
8.34987  0.432769
8.36887  0.769257
8.38787  0.798129
8.40688  0.43652
8.42588  0.421673
8.44488  0.427178
8.46389  0.434205
8.48289  0.522448
8.50189  0.261298
8.52089  -0.0320978
8.5399  -0.06978
8.5589  0.144008
8.5779  0.355653
8.59691  0.552273
8.61591  0.591677
8.63491  0.747745
8.65392  0.838319
8.67292  0.693706
8.69192  0.27672
8.71093  -0.0353418
8.72993  -0.153527
8.74893  0.0130048
8.76794  0.477127
8.78694  0.419966
8.80594  0.415103
8.82495  0.286524
8.84395  0.382795
8.86295  0.636753
8.88196  0.73444
8.90096  0.539274
8.91996  0.297928
8.93897  -0.103737
8.95797  -0.0980575
8.97697  0.0693174
8.99598  0.519217
9.01498  1.29861
9.03398  1.77532
9.05299  2.5576
9.07199  3.51028
9.09099  5.06126
9.11  6.41425
9.129  8.36672
9.148  11.148
9.16701  14.3053
9.18601  17.821
9.20501  21.2433
9.22402  25.6179
9.24302  30.7649
9.26202  36.9111
9.28103  44.2428
9.30003  52.6242
9.31903  64.5751
9.33804  79.807
9.35704  100.751
9.37604  129.301
9.39505  167.521
9.41405  221.742
9.43305  287.909
9.45206  364.654
9.47106  437.672
9.49006  496.839
9.50906  531.432
9.52807  536.111
9.54707  527.091
9.56607  500.53
9.58508  461.363
9.60408  408.805
9.62308  361.576
9.64209  316.144
9.66109  279.698
9.68009  249.395
9.6991  221.419
9.7181  196.871
9.7371  170.979
9.75611  146.269
9.77511  121.093
9.79411  98.0878
9.81312  77.5623
9.83212  61.2706
9.85112  48.076
9.87013  37.5582
9.88913  29.5101
9.90813  22.5448
9.92714  17.4628
9.94614  13.4756
9.96514  10.4408
9.98415  7.62374
10.0031  5.48693
10.0222  3.99383
10.0412  2.74819
10.0602  1.66687
10.0792  1.28349
10.0982  0.493446
10.1172  0.190748
10.1362  -0.168636
10.1552  -0.1439
10.1742  -0.731002
10.1932  -1.03959
10.2122  -0.94387
10.2312  -0.679731
10.2502  -0.588285
10.2692  -0.292892
10.2882  -0.0357502
10.3072  0.394403
10.3262  0.3661
10.3452  0.610482
10.3642  0.627882
10.3832  1.37976
10.4022  2.32147
10.4212  3.38724
10.4402  4.47188
10.4592  6.18945
10.4782  8.25393
10.4972  10.7325
10.5162  13.1091
10.5352  15.7622
10.5542  18.1845
10.5732  20.6767
10.5923  22.8506
10.6113  24.9435
10.6303  26.7241
10.6493  27.6518
10.6683  27.8888
10.6873  26.9302
10.7063  25.3435
10.7253  22.8556
10.7443  20.8711
10.7633  19.3952
10.7823  18.8652
10.8013  18.254
10.8203  18.2596
10.8393  18.5437
10.8583  19.0137
10.8773  19.99
10.8963  20.9933
10.9153  22.4354
10.9343  23.5312
10.9533  25.1537
10.9723  26.4671
10.9913  28.1628
11.0103  29.5169
11.0293  31.0158
11.0483  32.1315
11.0673  32.5767
11.0863  32.8024
11.1053  32.7111
11.1243  32.934
11.1433  33.1238
11.1623  33.0123
11.1814  32.0407
11.2004  31.1952
11.2194  31.1318
11.2384  31.2552
11.2574  31.8699
11.2764  32.2831
11.2954  31.0589
11.3144  29.2217
11.3334  26.5647
11.3524  24.1747
11.3714  20.5439
11.3904  17.0736
11.4094  13.4676
11.4284  10.8086
11.4474  8.73277
11.4664  7.45991
11.4854  6.4667
11.5044  5.41279
11.5234  4.3491
11.5424  3.51098
11.5614  3.00833
11.5804  2.77369
11.5994  2.65394
11.6184  2.52529
11.6374  2.1092
11.6564  2.05273
11.6754  2.02037
11.6944  1.54121
11.7134  0.84651
11.7324  0.166757
11.7515  -0.24186
11.7705  -0.383673
11.7895  -0.558757
11.8085  -0.49507
11.8275  -0.520867
11.8465  -0.8618
11.8655  -1.16909
11.8845  -0.979707
11.9035  -0.447806
11.9225  -0.377805
11.9415  -0.428635
11.9605  -0.40093
11.9795  -0.0414493
11.9985  0.540255
12.0175  1.18611
12.0365  1.83182
12.0555  2.89432
12.0745  4.49983
12.0935  5.86407
12.1125  7.5343
12.1315  8.81432
12.1505  9.91906
12.1695  11.1449
12.1885  12.1749
12.2075  12.9756
12.2265  13.3572
12.2455  13.7382
12.2645  14.539
12.2835  15.4365
12.3025  16.2399
12.3215  17.5117
12.3406  18.8906
12.3596  20.297
12.3786  21.6376
12.3976  23.4997
12.4166  26.2823
12.4356  29.6702
12.4546  33.285
12.4736  38.318
12.4926  43.9314
12.5116  50.8556
12.5306  58.3073
12.5496  66.4515
12.5686  77.6065
12.5876  86.5032
12.6066  98.523
12.6256  106.294
12.6446  117.564
12.6636  121.828
12.6826  122.927
12.7016  117.09
12.7206  108.74
12.7396  92.7441
12.7586  82.428
12.7776  70.6969
12.7966  62.1752
12.8156  55.1646
12.8346  49.5392
12.8536  45.4611
12.8726  42.8183
12.8916  41.1009
12.9106  39.819
12.9297  38.7171
12.9487  37.8963
12.9677  36.9538
12.9867  36.615
13.0057  36.3427
13.0247  35.118
13.0437  34.3965
13.0627  33.6681
13.0817  33.6296
13.1007  33.2474
13.1197  33.0694
13.1387  32.6756
13.1577  32.4767
13.1767  32.1406
13.1957  31.9893
13.2147  31.9697
13.2337  32.0774
13.2527  32.2022
13.2717  32.4463
13.2907  33.1755
13.3097  33.6552
13.3287  34.562
13.3477  35.6967
13.3667  37.8009
13.3857  40.4405
13.4047  43.2522
13.4237  45.7908
13.4427  48.6409
13.4617  49.7338
13.4807  49.2912
13.4998  46.1546
13.5188  41.4163
13.5378  35.059
13.5568  29.1676
13.5758  23.2422
13.5948  17.8137
13.6138  12.7469
13.6328  9.04938
13.6518  5.90999
13.6708  3.64633
13.6898  1.85016
13.7088  0.765108
13.7278  0.126225
13.7468  -0.253941
13.7658  -0.639662
13.7848  -0.435766
13.8038  -0.422429
13.8228  0.0263859
13.8418  0.306001
13.8608  0.864194
13.8798  1.55352
13.8988  2.04558
13.9178  2.51973
13.9368  2.48224
13.9558  2.61087
13.9748  3.10705
13.9938  3.76688
14.0128  4.91588
14.0318  6.08884
14.0508  7.02474
14.0698  8.02316
14.0889  8.9739
14.1079  10.3999
14.1269  11.6337
14.1459  12.9161
14.1649  13.9714
14.1839  15.6548
14.2029  16.7692
14.2219  17.0703
14.2409  16.6266
14.2599  15.7395
14.2789  14.6214
14.2979  13.0656
14.3169  11.2088
14.3359  9.47978
14.3549  7.41488
14.3739  5.3385
14.3929  3.5375
14.4119  2.25067
14.4309  1.1558
14.4499  0.334559
14.4689  -0.162039
14.4879  -0.315852
14.5069  -0.56735
14.5259  -0.483833
14.5449  -0.560473
14.5639  -0.54512
14.5829  -0.464616
14.6019  -0.299106
14.6209  -0.397842
14.6399  -0.558067
14.6589  -0.515193
14.678  -0.30405
14.697  -0.143728
14.716  0.11589
14.735  0.255721
14.754  0.200032
14.773  0.0693656
14.792  -0.140092
14.811  0.133921
14.83  0.316826
14.849  0.456593
14.868  0.316889
14.887  0.347982
14.906  0.595385
14.925  0.953364
14.944  1.04189
14.963  1.08981
14.982  0.776328
15.001  0.687842
15.02  0.333904
15.039  0.328281
15.058  0.380307
15.077  0.447404
15.096  0.242274
15.115  -0.00458686
15.134  0.118427
15.153  0.464113
15.172  0.532941
15.191  0.605853
15.21  0.500132
15.229  0.494084
15.2481  0.572785
15.2671  0.391833
15.2861  0.128136
15.3051  -0.0268801
15.3241  -0.014139
15.3431  0.0295482
15.3621  0.221067
15.3811  0.244583
15.4001  0.162467
15.4191  0.185655
15.4381  0.464824
15.4571  0.549718
15.4761  0.36847
15.4951  0.204177
15.5141  0.396686
15.5331  0.767915
15.5521  0.865203
15.5711  0.827744
15.5901  0.967101
15.6091  1.47949
15.6281  1.8588
15.6471  1.97253
15.6661  1.95944
15.6851  2.22547
15.7041  2.78693
15.7231  3.09347
15.7421  3.43397
15.7611  3.84307
15.7801  4.21498
15.7991  4.60686
15.8181  4.78953
15.8372  5.19261
15.8562  6.17649
15.8752  7.27593
15.8942  8.27088
15.9132  9.07764
15.9322  9.98122
15.9512  11.0374
15.9702  12.4368
15.9892  14.2416
16.0082  16.282
16.0272  17.8527
16.0462  19.1277
16.0652  19.8811
16.0842  20.6104
16.1032  20.9804
16.1222  21.6161
16.1412  22.4506
16.1602  23.3083
16.1792  24.3231
16.1982  25.4039
16.2172  26.591
16.2362  27.4163
16.2552  28.2117
16.2742  29.0357
16.2932  29.4539
16.3122  29.9993
16.3312  30.4277
16.3502  30.529
16.3692  30.9089
16.3882  31.2858
16.4073  31.1375
16.4263  30.7123
16.4453  29.8885
16.4643  28.7554
16.4833  27.9241
16.5023  26.6009
16.5213  25.0257
16.5403  22.9585
16.5593  21.1454
16.5783  18.9549
16.5973  17.0174
16.6163  15.0173
16.6353  13.4229
16.6543  11.6015
16.6733  10.3561
16.6923  8.7716
16.7113  7.61264
16.7303  6.66752
16.7493  6.31679
16.7683  5.63649
16.7873  4.72577
16.8063  4.13551
16.8253  3.95742
16.8443  3.60439
16.8633  3.20275
16.8823  2.95094
16.9013  2.61619
16.9203  2.30119
16.9393  1.96628
16.9583  1.69586
16.9773  1.6739
16.9964  1.79911
17.0154  1.6793
17.0344  1.37251
17.0534  1.27676
17.0724  1.34563
17.0914  1.3248
17.1104  1.33277
17.1294  1.35133
17.1484  1.40653
17.1674  1.44445
17.1864  1.41736
17.2054  1.12206
17.2244  0.945547
17.2434  0.972504
17.2624  1.31605
17.2814  1.3471
17.3004  1.51616
17.3194  1.85806
17.3384  2.12956
17.3574  2.48181
17.3764  2.8893
17.3954  3.03272
17.4144  3.21188
17.4334  3.55985
17.4524  4.07062
17.4714  4.69374
17.4904  5.17384
17.5094  5.44372
17.5284  6.12656
17.5474  7.08696
17.5664  8.10468
17.5855  8.75633
17.6045  9.93681
17.6235  11.424
17.6425  12.9981
17.6615  14.683
17.6805  16.5787
17.6995  18.9247
17.7185  21.2599
17.7375  24.4963
17.7565  28.5159
17.7755  33.5738
17.7945  38.1897
17.8135  43.5335
17.8325  48.8059
17.8515  54.2899
17.8705  58.3205
17.8895  61.5805
17.9085  64.5941
17.9275  67.0764
17.9465  68.1695
17.9655  68.2059
17.9845  67.3589
18.0035  65.8163
18.0225  63.4277
18.0415  60.8571
18.0605  58.591
18.0795  55.8347
18.0985  52.7685
18.1175  49.1021
18.1365  44.5503
18.1556  40.3705
18.1746  36.4479
18.1936  32.7081
18.2126  29.1572
18.2316  25.9118
18.2506  22.7358
18.2696  19.5503
18.2886  16.5459
18.3076  14.3216
18.3266  12.5209
18.3456  10.8783
18.3646  9.38729
18.3836  7.83223
18.4026  6.67398
18.4216  5.61541
18.4406  4.993
18.4596  4.09532
18.4786  3.53043
18.4976  3.20591
18.5166  3.09551
18.5356  2.88229
18.5546  2.40532
18.5736  2.02724
18.5926  1.54696
18.6116  1.45803
18.6306  1.18177
18.6496  0.974239
18.6686  0.625522
18.6876  0.551245
18.7066  0.315977
18.7256  0.391269
18.7447  0.370311
18.7637  0.584526
18.7827  0.393035
18.8017  0.550487
18.8207  0.773542
18.8397  1.10725
18.8587  1.53218
18.8777  1.93039
18.8967  2.49793
18.9157  3.16042
18.9347  3.58852
18.9537  4.21335
18.9727  4.69718
18.9917  5.33003
19.0107  5.65392
19.0297  5.86152
19.0487  5.76575
19.0677  5.77467
19.0867  5.5508
19.1057  5.26869
19.1247  4.86662
19.1437  4.84031
19.1627  4.45949
19.1817  3.97134
19.2007  3.29623
19.2197  2.61998
19.2387  2.11671
19.2577  1.61041
19.2767  1.05608
19.2957  0.702739
19.3148  0.201547
19.3338  -0.26422
19.3528  -0.430868
19.3718  -0.641282
19.3908  -0.580025
19.4098  -0.687903
19.4288  -0.560216
19.4478  -0.612139
19.4668  -0.277961
19.4858  -0.0523626
19.5048  0.286303
19.5238  0.359249
19.5428  0.874336
19.5618  1.35044
19.5808  1.9353
19.5998  2.3573
19.6188  3.09583
19.6378  3.62714
19.6568  4.19874
19.6758  5.1462
19.6948  6.41538
19.7138  7.9602
19.7328  9.24101
19.7518  10.9562
19.7708  12.1625
19.7898  13.5433
19.8088  13.9929
19.8278  14.1699
19.8468  14.1949
19.8658  13.4045
19.8848  12.2314
19.9039  10.6363
19.9229  9.44019
19.9419  8.40632
19.9609  7.24935
19.9799  6.36892
19.9989  5.35568
20.0179  4.69125
20.0369  3.80487
20.0559  3.00016
20.0749  2.22132
20.0939  1.70797
20.1129  1.27765
20.1319  0.959648
20.1509  0.732847
20.1699  0.775471
20.1889  0.808082
20.2079  0.54744
20.2269  0.452501
20.2459  0.411451
20.2649  0.11798
20.2839  0.0377023
20.3029  0.0998499
20.3219  0.166956
20.3409  0.155459
20.3599  0.254227
20.3789  0.270101
20.3979  0.312912
20.4169  0.321659
20.4359  0.274898
20.4549  0.379813
20.4739  0.426298
20.493  0.39139
20.512  0.147864
20.531  0.014405
20.55  -0.052516
20.569  -0.0174976
20.588  0.0264529
20.607  -0.0719592
20.626  -0.203835
20.645  -0.208987
20.664  0.0594009
20.683  0.373305
20.702  0.432482
20.721  0.480862
20.74  0.462397
20.759  0.502901
20.778  0.581376
20.797  0.454352
20.816  0.38698
20.835  0.361191
20.854  0.44297
20.873  0.465855
20.892  0.184531
20.911  0.0601785
20.93  -0.0485971
20.949  0.0790087
20.968  0.13964
20.987  0.453017
21.006  0.391584
21.025  0.231714
21.044  0.118041
21.0631  0.305731
21.0821  0.389116
21.1011  0.345621
21.1201  0.396714
21.1391  0.486659
21.1581  0.421724
21.1771  0.341522
21.1961  0.324243
21.2151  0.298505
21.2341  0.387849
21.2531  0.435859
21.2721  0.322694
21.2911  0.14875
21.3101  -0.0350028
21.3291  -0.0733606
21.3481  -0.0744045
21.3671  0.181923
21.3861  0.33405
21.4051  0.310116
21.4241  0.0297469
21.4431  0.11687
21.4621  0.104204
21.4811  0.135733
21.5001  0.105718
21.5191  0.210792
21.5381  0.404048
21.5571  0.46683
21.5761  0.10267
21.5951  -0.169663
21.6141  -0.0242918
21.6331  0.115868
21.6522  0.0166436
21.6712  -0.0196249
21.6902  0.0405834
21.7092  0.254838
21.7282  0.116907
21.7472  0.00437165
21.7662  0.00247804
21.7852  0.0762498
21.8042  0.00481397
21.8232  -0.0248783
21.8422  0.0588632
21.8612  0.0611266
21.8802  -0.0332817
21.8992  0.00484412
21.9182  -0.0988222
21.9372  -0.0804333
21.9562  0.0734615
21.9752  0.0724854
21.9942  0.00169226
22.0132  -0.0433456
22.0322  0.00946185