File: data/processed/Run2_XRD/9_ReMoB2_515psi_noRuby_S_P1_C1_D1w_061.dat
2.93393  0.437009
2.95294  0.297714
2.97194  0.0993593
2.99094  0.718064
3.00995  1.29817
3.02895  1.84383
3.04795  1.32234
3.06696  0.889438
3.08596  1.05204
3.10496  1.30714
3.12397  1.43093
3.14297  0.766218
3.16197  0.563888
3.18098  0.438479
3.19998  0.907477
3.21898  1.15956
3.23799  1.49761
3.25699  1.83873
3.27599  1.67017
3.295  1.28162
3.314  1.14785
3.333  1.29027
3.35201  1.89192
3.37101  2.49016
3.39001  3.2264
3.40902  4.1984
3.42802  5.96823
3.44702  8.77202
3.46603  12.9377
3.48503  18.2438
3.50403  22.2873
3.52304  22.8328
3.54204  19.7297
3.56104  14.4924
3.58005  9.74465
3.59905  6.38408
3.61805  4.63274
3.63706  3.27027
3.65606  2.86833
3.67506  2.17497
3.69407  1.83963
3.71307  1.76435
3.73207  1.85016
3.75108  1.36998
3.77008  0.757706
3.78908  0.0927456
3.80808  -0.0595421
3.82709  0.390767
3.84609  0.254244
3.86509  0.743241
3.8841  0.769253
3.9031  1.07245
3.9221  1.1771
3.94111  1.12813
3.96011  1.12092
3.97911  1.27074
3.99812  1.14474
4.01712  0.936607
4.03612  1.00024
4.05513  1.24472
4.07413  1.07842
4.09313  0.419363
4.11214  0.436911
4.13114  0.894937
4.15014  1.53146
4.16915  1.5432
4.18815  1.19702
4.20715  1.08199
4.22616  1.32139
4.24516  0.689688
4.26416  0.853501
4.28317  0.627261
4.30217  0.549687
4.32117  0.349827
4.34018  0.500424
4.35918  0.646195
4.37818  0.866187
4.39719  1.06925
4.41619  1.37933
4.43519  1.53016
4.4542  0.962889
4.4732  0.727004
4.4922  0.351278
4.51121  0.771177
4.53021  0.309573
4.54921  0.560606
4.56822  0.565346
4.58722  0.344227
4.60622  0.217931
4.62523  -0.0742261
4.64423  -0.023644
4.66323  0.00572651
4.68224  0.422681
4.70124  1.00128
4.72024  1.34711
4.73924  1.59193
4.75825  1.10824
4.77725  0.86733
4.79625  0.41085
4.81526  0.24906
4.83426  0.334157
4.85326  0.0822128
4.87227  -0.189452
4.89127  -0.0713253
4.91027  0.254261
4.92928  0.191358
4.94828  0.452539
4.96728  0.573674
4.98629  0.686849
5.00529  0.659822
5.02429  0.277234
5.0433  0.0904276
5.0623  0.0177834
5.0813  -0.0112092
5.10031  0.160399
5.11931  0.546395
5.13831  0.838289
5.15732  1.18747
5.17632  0.998901
5.19532  0.6232
5.21433  0.491278
5.23333  0.373822
5.25233  0.599372
5.27134  1.02646
5.29034  1.28068
5.30934  1.27825
5.32835  1.41531
5.34735  1.05888
5.36635  0.748866
5.38536  0.3796
5.40436  0.351002
5.42336  -0.126031
5.44237  -0.222482
5.46137  0.00294504
5.48037  0.507533
5.49938  0.910941
5.51838  1.06913
5.53738  0.928006
5.55639  0.394502
5.57539  0.028291
5.59439  -0.004321
5.6134  0.115336
5.6324  0.180222
5.6514  0.391429
5.67041  0.7721
5.68941  0.430618
5.70841  0.0205765
5.72741  0.262646
5.74642  1.54769
5.76542  3.05765
5.78442  4.36485
5.80343  4.98198
5.82243  4.87651
5.84143  4.40222
5.86044  3.48193
5.87944  2.70534
5.89844  2.09956
5.91745  1.5308
5.93645  1.2747
5.95545  0.728111
5.97446  0.427758
5.99346  0.46665
6.01246  0.690151
6.03147  0.767271
6.05047  0.439993
6.06947  -0.200134
6.08848  -0.134185
6.10748  -0.0855558
6.12648  0.219128
6.14549  0.514231
6.16449  0.611058
6.18349  0.465406
6.2025  0.614976
6.2215  0.644551
6.2405  0.20414
6.25951  0.194953
6.27851  0.26832
6.29751  0.789742
6.31652  1.12727
6.33552  1.67461
6.35452  2.46026
6.37353  4.621
6.39253  7.88611
6.41153  13.4091
6.43054  17.4978
6.44954  19.7566
6.46854  17.8752
6.48755  14.7586
6.50655  9.48453
6.52555  5.94061
6.54456  3.23305
6.56356  1.98757
6.58256  1.30923
6.60157  1.20284
6.62057  1.75567
6.63957  2.50331
6.65857  3.40167
6.67758  4.71198
6.69658  6.35534
6.71558  8.62355
6.73459  10.6798
6.75359  11.5917
6.77259  11.9121
6.7916  11.4544
6.8106  10.975
6.8296  10.5445
6.84861  10.7173
6.86761  11.3279
6.88661  12.9596
6.90562  16.4815
6.92462  22.0716
6.94362  31.6236
6.96263  43.4722
6.98163  58.6018
7.00063  71.6692
7.01964  82.2578
7.03864  84.5306
7.05764  81.8368
7.07665  70.3827
7.09565  58.4491
7.11465  45.2498
7.13366  34.285
7.15266  25.5883
7.17166  18.9378
7.19067  13.5903
7.20967  9.88079
7.22867  6.95004
7.24768  5.25476
7.26668  4.66005
7.28568  4.23811
7.30469  3.0635
7.32369  2.04438
7.34269  1.28281
7.3617  1.12388
7.3807  0.989968
7.3997  1.01747
7.41871  0.847208
7.43771  0.748945
7.45671  0.762321
7.47572  0.672622
7.49472  0.436407
7.51372  0.29346
7.53273  0.388038
7.55173  0.408461
7.57073  0.1013
7.58973  -0.0264255
7.60874  0.00220781
7.62774  0.335261
7.64674  0.365237
7.66575  0.204023
7.68475  0.321092
7.70375  0.246076
7.72276  0.147579
7.74176  -0.00758383
7.76076  0.214329
7.77977  0.255366
7.79877  0.0855544
7.81777  0.18321
7.83678  0.729657
7.85578  1.02478
7.87478  1.00439
7.89379  0.94963
7.91279  0.953747
7.93179  0.921079
7.9508  0.578072
7.9698  0.68752
7.9888  0.613648
8.00781  0.407431
8.02681  0.731485
8.04581  0.379293
8.06482  0.109951
8.08382  -0.380304
8.10282  -0.171629
8.12183  -0.0976242
8.14083  0.0524111
8.15983  0.262572
8.17884  0.582952
8.19784  0.619037
8.21684  0.72331
8.23585  0.831982
8.25485  0.577192
8.27385  0.16324
8.29286  -0.0113551
8.31186  0.180677
8.33086  0.337284
8.34987  0.573846
8.36887  0.448045
8.38787  0.374593
8.40688  0.647918
8.42588  0.780794
8.44488  0.591675
8.46389  0.611341
8.48289  0.594069
8.50189  0.545575
8.52089  0.695212
8.5399  0.731783
8.5589  0.651062
8.5779  0.328944
8.59691  0.194776
8.61591  0.068053
8.63491  -0.118429
8.65392  -0.108738
8.67292  0.160057
8.69192  0.286016
8.71093  0.55309
8.72993  0.315294
8.74893  0.303391
8.76794  -0.0913086
8.78694  0.0954122
8.80594  0.183463
8.82495  0.0435799
8.84395  -0.103513
8.86295  -0.373321
8.88196  -0.0165877
8.90096  0.244473
8.91996  0.214363
8.93897  -0.0617715
8.95797  -0.171526
8.97697  0.0208404
8.99598  0.418825
9.01498  1.01356
9.03398  1.48477
9.05299  2.11555
9.07199  2.82265
9.09099  3.97529
9.11  5.62588
9.129  7.91064
9.148  11.1536
9.16701  14.7942
9.18601  18.7416
9.20501  23.343
9.22402  28.3841
9.24302  34.2269
9.26202  40.2752
9.28103  47.2288
9.30003  54.3811
9.31903  62.8928
9.33804  72.6937
9.35704  85.374
9.37604  101.606
9.39505  120.977
9.41405  148.915
9.43305  183.505
9.45206  228.577
9.47106  279.725
9.49006  337.794
9.50906  394.064
9.52807  437.779
9.54707  471.886
9.56607  483.574
9.58508  474.882
9.60408  443.664
9.62308  405.906
9.64209  362.116
9.66109  319.937
9.68009  283.675
9.6991  249.615
9.7181  224.202
9.7371  200.058
9.75611  177.176
9.77511  152.378
9.79411  127.923
9.81312  104.489
9.83212  83.9733
9.85112  66.2562
9.87013  51.8055
9.88913  40.7229
9.90813  31.7054
9.92714  24.9258
9.94614  19.5432
9.96514  15.1714
9.98415  11.1488
10.0031  8.54935
10.0222  6.57437
10.0412  4.86645
10.0602  3.1768
10.0792  1.92356
10.0982  0.977466
10.1172  0.463489
10.1362  0.109806
10.1552  -0.325352
10.1742  -0.92942
10.1932  -0.815293
10.2122  -0.773198
10.2312  -0.716745
10.2502  -0.879554
10.2692  -0.770254
10.2882  -0.441907
10.3072  0.192305
10.3262  0.356927
10.3452  0.856006
10.3642  1.35042
10.3832  1.78032
10.4022  2.1038
10.4212  2.40861
10.4402  3.03243
10.4592  3.74177
10.4782  4.77122
10.4972  6.10662
10.5162  7.69959
10.5352  9.4606
10.5542  11.2333
10.5732  13.6233
10.5923  15.5624
10.6113  17.6362
10.6303  19.2536
10.6493  20.452
10.6683  20.8591
10.6873  21.1909
10.7063  21.2466
10.7253  21.2051
10.7443  20.3291
10.7633  19.3644
10.7823  18.9387
10.8013  18.227
10.8203  17.8212
10.8393  17.3685
10.8583  17.2626
10.8773  17.8588
10.8963  18.4426
10.9153  19.9454
10.9343  20.8568
10.9533  21.8397
10.9723  22.2074
10.9913  23.4491
11.0103  24.6653
11.0293  26.1488
11.0483  26.745
11.0673  27.4265
11.0863  28.5497
11.1053  28.9428
11.1243  29.4938
11.1433  29.9779
11.1623  29.6273
11.1814  28.772
11.2004  28.0466
11.2194  28.1968
11.2384  28.4295
11.2574  29.0639
11.2764  30.3335
11.2954  30.2793
11.3144  30.5753
11.3334  30.1818
11.3524  29.2338
11.3714  26.7439
11.3904  23.7163
11.4094  20.8126
11.4284  17.5398
11.4474  15.245
11.4664  12.5053
11.4854  10.7418
11.5044  8.81247
11.5234  7.37561
11.5424  6.399
11.5614  5.77033
11.5804  4.87175
11.5994  4.2269
11.6184  3.77233
11.6374  3.71895
11.6564  2.8374
11.6754  2.09502
11.6944  2.13537
11.7134  1.91485
11.7324  1.88013
11.7515  1.2983
11.7705  0.925689
11.7895  0.332072
11.8085  -0.390797
11.8275  -0.427835
11.8465  -0.478964
11.8655  -0.597662
11.8845  -0.959466
11.9035  -0.949889
11.9225  -1.06021
11.9415  -0.628791
11.9605  -0.352771
11.9795  0.430231
11.9985  1.11686
12.0175  2.17103
12.0365  3.20573
12.0555  4.90143
12.0745  7.14665
12.0935  9.61739
12.1125  12.8979
12.1315  15.9784
12.1505  18.4037
12.1695  21.0069
12.1885  22.4418
12.2075  23.3408
12.2265  23.139
12.2455  22.6338
12.2645  21.3371
12.2835  20.3802
12.3025  19.4864
12.3215  19.1376
12.3406  18.873
12.3596  18.9085
12.3786  19.4879
12.3976  20.9275
12.4166  22.4273
12.4356  24.6363
12.4546  27.2044
12.4736  30.5536
12.4926  34.1838
12.5116  38.9523
12.5306  44.8566
12.5496  51.6149
12.5686  60.1736
12.5876  68.0584
12.6066  78.565
12.6256  87.3882
12.6446  99.1935
12.6636  109.343
12.6826  122.782
12.7016  135.958
12.7206  138.016
12.7396  138.327
12.7586  129.309
12.7776  105.674
12.7966  90.4615
12.8156  75.7363
12.8346  62.9808
12.8536  55.8363
12.8726  48.646
12.8916  45.0203
12.9106  41.2788
12.9297  39.0889
12.9487  37.3559
12.9677  36.2319
12.9867  35.2395
13.0057  34.3804
13.0247  33.7067
13.0437  32.557
13.0627  31.0199
13.0817  29.7143
13.1007  28.7718
13.1197  28.3207
13.1387  27.7516
13.1577  27.5352
13.1767  27.5684
13.1957  27.327
13.2147  26.8129
13.2337  26.769
13.2527  26.8828
13.2717  26.8345
13.2907  26.6265
13.3097  26.495
13.3287  26.3928
13.3477  26.7513
13.3667  27.5263
13.3857  28.3951
13.4047  29.5857
13.4237  30.6185
13.4427  32.1921
13.4617  33.1998
13.4807  34.3083
13.4998  34.7492
13.5188  34.9852
13.5378  34.2271
13.5568  31.9894
13.5758  28.5714
13.5948  24.5791
13.6138  20.0292
13.6328  15.9084
13.6518  11.7215
13.6708  8.27325
13.6898  5.70488
13.7088  3.64776
13.7278  2.02239
13.7468  0.632169
13.7658  -0.0857326
13.7848  -0.242894
13.8038  -0.0169229
13.8228  0.155394
13.8418  0.612796
13.8608  0.704435
13.8798  0.819254
13.8988  1.32318
13.9178  1.70908
13.9368  1.99598
13.9558  2.10305
13.9748  2.87249
13.9938  3.49275
14.0128  4.21309
14.0318  4.67739
14.0508  5.10653
14.0698  5.49344
14.0889  5.90082
14.1079  6.5481
14.1269  7.30215
14.1459  7.94138
14.1649  8.37401
14.1839  9.19431
14.2029  10.0262
14.2219  10.817
14.2409  11.4242
14.2599  11.5305
14.2789  10.672
14.2979  9.58767
14.3169  8.65993
14.3359  7.47415
14.3549  5.71191
14.3739  3.79905
14.3929  2.25881
14.4119  1.42874
14.4309  0.647516
14.4499  0.223956
14.4689  -0.393516
14.4879  -0.86931
14.5069  -0.962041
14.5259  -0.818335
14.5449  -0.486321
14.5639  -0.442696
14.5829  -0.606426
14.6019  -0.478784
14.6209  -0.275955
14.6399  -0.243587
14.6589  -0.180872
14.678  -0.128481
14.697  -0.0498341
14.716  0.18395
14.735  0.44647
14.754  0.611091
14.773  0.374003
14.792  0.18795
14.811  0.177693
14.83  0.334223
14.849  0.427754
14.868  0.906004
14.887  0.540726
14.906  0.614362
14.925  0.552157
14.944  0.947679
14.963  1.17711
14.982  0.895628
15.001  0.182218
15.02  0.0493845
15.039  0.476959
15.058  1.13515
15.077  1.14062
15.096  1.01738
15.115  0.816573
15.134  0.655968
15.153  0.670541
15.172  0.782812
15.191  0.935064
15.21  0.655319
15.229  0.730766
15.2481  0.532744
15.2671  0.353429
15.2861  -0.00881425
15.3051  -0.130545
15.3241  0.0295794
15.3431  -0.104871
15.3621  0.108179
15.3811  0.120799
15.4001  0.283114
15.4191  0.415065
15.4381  0.314223
15.4571  0.736366
15.4761  0.386111
15.4951  -0.000856995
15.5141  -0.103813
15.5331  0.16102
15.5521  0.430615
15.5711  0.596895
15.5901  0.755907
15.6091  0.981141
15.6281  1.28628
15.6471  1.57024
15.6661  1.8284
15.6851  2.21975
15.7041  2.45359
15.7231  2.58631
15.7421  2.36716
15.7611  2.74511
15.7801  3.03402
15.7991  3.72483
15.8181  3.96148
15.8372  4.53663
15.8562  5.04812
15.8752  5.78722
15.8942  6.57876
15.9132  7.27171
15.9322  7.68883
15.9512  8.16756
15.9702  9.00136
15.9892  10.19
16.0082  11.3691
16.0272  12.4338
16.0462  13.642
16.0652  14.9825
16.0842  16.128
16.1032  16.64
16.1222  17.4564
16.1412  18.1987
16.1602  18.5441
16.1792  18.8838
16.1982  19.2918
16.2172  19.8694
16.2362  20.7622
16.2552  21.4814
16.2742  22.1378
16.2932  22.6669
16.3122  23.1531
16.3312  23.8145
16.3502  24.2394
16.3692  24.9416
16.3882  25.9827
16.4073  27.1386
16.4263  27.9842
16.4453  27.9933
16.4643  27.774
16.4833  27.6025
16.5023  27.4215
16.5213  26.8342
16.5403  25.6956
16.5593  24.5922
16.5783  22.8634
16.5973  20.6471
16.6163  18.5188
16.6353  16.5087
16.6543  14.7377
16.6733  13.0922
16.6923  11.6913
16.7113  10.1081
16.7303  8.64326
16.7493  7.60253
16.7683  6.96541
16.7873  6.39554
16.8063  5.59797
16.8253  4.78563
16.8443  4.71651
16.8633  4.52766
16.8823  4.22282
16.9013  3.51106
16.9203  3.06955
16.9393  2.84159
16.9583  2.68268
16.9773  2.2637
16.9964  1.85896
17.0154  1.70786
17.0344  1.971
17.0534  1.73771
17.0724  1.28945
17.0914  1.28242
17.1104  1.37791
17.1294  1.21462
17.1484  1.1157
17.1674  1.24504
17.1864  1.62102
17.2054  1.61067
17.2244  1.68419
17.2434  1.35725
17.2624  1.43035
17.2814  1.46057
17.3004  1.83323
17.3194  1.99536
17.3384  1.87723
17.3574  1.70727
17.3764  1.89868
17.3954  2.69824
17.4144  3.0963
17.4334  3.12
17.4524  3.374
17.4714  3.93666
17.4904  4.51797
17.5094  4.87133
17.5284  5.02403
17.5474  5.2535
17.5664  5.54104
17.5855  6.00363
17.6045  6.6776
17.6235  7.84759
17.6425  8.59738
17.6615  9.68361
17.6805  10.6918
17.6995  11.9907
17.7185  13.6381
17.7375  15.7848
17.7565  17.6
17.7755  19.6204
17.7945  22.1406
17.8135  25.2848
17.8325  29.1831
17.8515  33.2018
17.8705  37.5318
17.8895  41.6999
17.9085  46.0873
17.9275  50.5656
17.9465  54.415
17.9655  57.362
17.9845  59.8153
18.0035  61.1453
18.0225  62.1465
18.0415  62.1693
18.0605  61.63
18.0795  60.4539
18.0985  58.7154
18.1175  56.6722
18.1365  54.6261
18.1556  53.34
18.1746  52.3788
18.1936  51.5043
18.2126  50.1775
18.2316  46.4785
18.2506  40.941
18.2696  34.6778
18.2886  28.7574
18.3076  23.9083
18.3266  20.4756
18.3456  17.4791
18.3646  14.8211
18.3836  12.5164
18.4026  11.0754
18.4216  9.89997
18.4406  8.75764
18.4596  7.36854
18.4786  6.21327
18.4976  5.12315
18.5166  4.59207
18.5356  4.11761
18.5546  3.44555
18.5736  2.79683
18.5926  2.25699
18.6116  1.76246
18.6306  1.65473
18.6496  1.38586
18.6686  0.979141
18.6876  0.531414
18.7066  0.247321
18.7256  0.15047
18.7447  0.122245
18.7637  0.18255
18.7827  -0.110534
18.8017  -0.103593
18.8207  -0.117081
18.8397  0.33262
18.8587  0.623711
18.8777  0.912985
18.8967  1.33215
18.9157  1.90355
18.9347  2.41966
18.9537  2.79741
18.9727  3.39101
18.9917  3.80619
19.0107  4.31161
19.0297  4.62479
19.0487  4.82535
19.0677  4.79625
19.0867  4.79312
19.1057  4.69984
19.1247  4.56075
19.1437  4.07294
19.1627  3.66796
19.1817  3.24575
19.2007  2.84502
19.2197  2.45202
19.2387  2.26888
19.2577  2.14572
19.2767  1.67329
19.2957  1.20602
19.3148  0.69544
19.3338  0.477577
19.3528  0.0435278
19.3718  -0.367828
19.3908  -0.326661
19.4098  -0.368842
19.4288  -0.417986
19.4478  -0.700667
19.4668  -0.741273
19.4858  -0.537283
19.5048  -0.353756
19.5238  -0.255065
19.5428  -0.119292
19.5618  0.208542
19.5808  0.38029
19.5998  0.527607
19.6188  0.876233
19.6378  1.26492
19.6568  1.67885
19.6758  2.11492
19.6948  2.27683
19.7138  2.84937
19.7328  3.31971
19.7518  4.34941
19.7708  5.30747
19.7898  6.52266
19.8088  7.13427
19.8278  8.12608
19.8468  9.07131
19.8658  9.87531
19.8848  9.9725
19.9039  9.74992
19.9229  9.21639
19.9419  8.73676
19.9609  7.87819
19.9799  7.00365
19.9989  6.32606
20.0179  5.5789
20.0369  4.819
20.0559  4.18005
20.0749  3.58788
20.0939  3.02015
20.1129  2.43879
20.1319  2.02788
20.1509  1.75498
20.1699  1.64209
20.1889  1.39295
20.2079  0.968969
20.2269  0.614203
20.2459  0.449028
20.2649  0.358891
20.2839  0.21614
20.3029  0.218009
20.3219  0.19522
20.3409  0.31751
20.3599  0.344802
20.3789  0.451694
20.3979  0.305797
20.4169  0.223353
20.4359  0.178744
20.4549  0.28971
20.4739  0.229341
20.493  0.0322787
20.512  0.0126107
20.531  0.0791949
20.55  0.301053
20.569  0.471145
20.588  0.543063
20.607  0.390363
20.626  0.371947
20.645  0.321232
20.664  0.111268
20.683  -0.0683719
20.702  -0.00804778
20.721  0.00853223
20.74  0.0281234
20.759  -0.167051
20.778  -0.105649
20.797  -0.0918835
20.816  0.0131142
20.835  0.0678216
20.854  0.214424
20.873  0.314025
20.892  0.356052
20.911  0.256295
20.93  0.211883
20.949  0.401382
20.968  0.322676
20.987  0.426141
21.006  0.280773
21.025  0.307544
21.044  0.296465
21.0631  0.414392
21.0821  0.477016
21.1011  0.489064
21.1201  0.552349
21.1391  0.550091
21.1581  0.555931
21.1771  0.526068
21.1961  0.58502
21.2151  0.528694
21.2341  0.55412
21.2531  0.555384
21.2721  0.469486
21.2911  0.342318
21.3101  0.0278613
21.3291  0.00912488
21.3481  -0.0506699
21.3671  -0.0334428
21.3861  -0.150438
21.4051  -0.0239065
21.4241  0.126834
21.4431  0.371791
21.4621  0.402696
21.4811  0.409706
21.5001  0.350438
21.5191  0.248179
21.5381  0.304923
21.5571  0.20477
21.5761  0.29484
21.5951  0.438424
21.6141  0.539179
21.6331  0.234988
21.6522  -0.10717
21.6712  -0.2645
21.6902  -0.0233743
21.7092  0.161561
21.7282  0.312435
21.7472  0.0743189
21.7662  0.053434
21.7852  0.204685
21.8042  0.202399
21.8232  0.0544495
21.8422  0.0208422
21.8612  -0.0129365
21.8802  0.0107181
21.8992  -0.0557068
21.9182  -0.012614
21.9372  0.029281
21.9562  -0.0881374
21.9752  -0.0353478
21.9942  0.0387226
22.0132  0.112657
22.0322  -0.0671076